"participantID","age","gender","block_i","trial_i","stim","signal","SSD","response","rt","correct","focus","Fullscreen","time_elapsed","browser_name","browser_version","os_name","os_version","tablet","mobile","screen_resolution","window_resolution"
"2wffrje9z2hvkl21jr2ou70mrwvj804h","9999","Female","0","1","right","yes","200","undefined","null","true","focus","yes","1028287","Chrome","74.0","Windows","10","undefined","undefined","1920 x 1080","1920 x 1080"
"2wffrje9z2hvkl21jr2ou70mrwvj804h","9999","Female","0","2","right","no","250","rightarrow","591","true","focus","yes","1029649","Chrome","74.0","Windows","10","undefined","undefined","1920 x 1080","1920 x 1080"
"2wffrje9z2hvkl21jr2ou70mrwvj804h","9999","Female","0","3","left","no","250","leftarrow","331","true","focus","yes","1030753","Chrome","74.0","Windows","10","undefined","undefined","1920 x 1080","1920 x 1080"
"2wffrje9z2hvkl21jr2ou70mrwvj804h","9999","Female","0","4","left","yes","250","rightarrow","110","false","focus","yes","1031633","Chrome","74.0","Windows","10","undefined","undefined","1920 x 1080","1920 x 1080"
"2wffrje9z2hvkl21jr2ou70mrwvj804h","9999","Female","0","5","left","no","200","undefined","null","false","focus","yes","1034423","Chrome","74.0","Windows","10","undefined","undefined","1920 x 1080","1920 x 1080"
"2wffrje9z2hvkl21jr2ou70mrwvj804h","9999","Female","0","6","right","no","200","leftarrow","155","false","focus","yes","1036113","Chrome","74.0","Windows","10","undefined","undefined","1920 x 1080","1920 x 1080"
"2wffrje9z2hvkl21jr2ou70mrwvj804h","9999","Female","0","7","right","no","200","leftarrow","297","false","focus","yes","1037937","Chrome","74.0","Windows","10","undefined","undefined","1920 x 1080","1920 x 1080"
"2wffrje9z2hvkl21jr2ou70mrwvj804h","9999","Female","0","8","left","no","200","leftarrow","495","true","focus","yes","1039953","Chrome","74.0","Windows","10","undefined","undefined","1920 x 1080","1920 x 1080"
"2wffrje9z2hvkl21jr2ou70mrwvj804h","9999","Female","0","9","left","no","200","leftarrow","415","true","focus","yes","1041137","Chrome","74.0","Windows","10","undefined","undefined","1920 x 1080","1920 x 1080"
"2wffrje9z2hvkl21jr2ou70mrwvj804h","9999","Female","0","10","right","no","200","leftarrow","319","false","focus","yes","1042226","Chrome","74.0","Windows","10","undefined","undefined","1920 x 1080","1920 x 1080"
"2wffrje9z2hvkl21jr2ou70mrwvj804h","9999","Female","0","11","right","no","200","leftarrow","308","false","focus","yes","1044081","Chrome","74.0","Windows","10","undefined","undefined","1920 x 1080","1920 x 1080"
"2wffrje9z2hvkl21jr2ou70mrwvj804h","9999","Female","0","12","left","no","200","leftarrow","506","true","focus","yes","1046114","Chrome","74.0","Windows","10","undefined","undefined","1920 x 1080","1920 x 1080"
"2wffrje9z2hvkl21jr2ou70mrwvj804h","9999","Female","0","13","right","no","200","rightarrow","359","true","focus","yes","1047250","Chrome","74.0","Windows","10","undefined","undefined","1920 x 1080","1920 x 1080"
"2wffrje9z2hvkl21jr2ou70mrwvj804h","9999","Female","0","14","right","yes","200","rightarrow","555","false","focus","yes","1048578","Chrome","74.0","Windows","10","undefined","undefined","1920 x 1080","1920 x 1080"
"2wffrje9z2hvkl21jr2ou70mrwvj804h","9999","Female","0","15","left","no","150","leftarrow","293","true","focus","yes","1050402","Chrome","74.0","Windows","10","undefined","undefined","1920 x 1080","1920 x 1080"
"2wffrje9z2hvkl21jr2ou70mrwvj804h","9999","Female","0","16","left","yes","150","rightarrow","380","false","focus","yes","1051554","Chrome","74.0","Windows","10","undefined","undefined","1920 x 1080","1920 x 1080"
"2wffrje9z2hvkl21jr2ou70mrwvj804h","9999","Female","0","17","right","yes","100","undefined","null","true","focus","yes","1054330","Chrome","74.0","Windows","10","undefined","undefined","1920 x 1080","1920 x 1080"
"2wffrje9z2hvkl21jr2ou70mrwvj804h","9999","Female","0","18","right","no","150","rightarrow","383","true","focus","yes","1055490","Chrome","74.0","Windows","10","undefined","undefined","1920 x 1080","1920 x 1080"
"2wffrje9z2hvkl21jr2ou70mrwvj804h","9999","Female","0","19","left","no","150","leftarrow","304","true","focus","yes","1056577","Chrome","74.0","Windows","10","undefined","undefined","1920 x 1080","1920 x 1080"
"2wffrje9z2hvkl21jr2ou70mrwvj804h","9999","Female","0","20","left","yes","150","leftarrow","485","false","focus","yes","1057841","Chrome","74.0","Windows","10","undefined","undefined","1920 x 1080","1920 x 1080"
"2wffrje9z2hvkl21jr2ou70mrwvj804h","9999","Female","0","21","right","no","100","rightarrow","338","true","focus","yes","1059713","Chrome","74.0","Windows","10","undefined","undefined","1920 x 1080","1920 x 1080"
"2wffrje9z2hvkl21jr2ou70mrwvj804h","9999","Female","0","22","left","no","100","leftarrow","311","true","focus","yes","1060785","Chrome","74.0","Windows","10","undefined","undefined","1920 x 1080","1920 x 1080"
"2wffrje9z2hvkl21jr2ou70mrwvj804h","9999","Female","0","23","left","no","100","rightarrow","253","false","focus","yes","1061809","Chrome","74.0","Windows","10","undefined","undefined","1920 x 1080","1920 x 1080"
"2wffrje9z2hvkl21jr2ou70mrwvj804h","9999","Female","0","24","right","no","100","rightarrow","389","true","focus","yes","1063730","Chrome","74.0","Windows","10","undefined","undefined","1920 x 1080","1920 x 1080"
"2wffrje9z2hvkl21jr2ou70mrwvj804h","9999","Female","0","25","right","no","100","rightarrow","374","true","focus","yes","1064866","Chrome","74.0","Windows","10","undefined","undefined","1920 x 1080","1920 x 1080"
"2wffrje9z2hvkl21jr2ou70mrwvj804h","9999","Female","0","26","right","no","100","leftarrow","250","false","focus","yes","1065889","Chrome","74.0","Windows","10","undefined","undefined","1920 x 1080","1920 x 1080"
"2wffrje9z2hvkl21jr2ou70mrwvj804h","9999","Female","0","27","left","no","100","leftarrow","481","true","focus","yes","1067906","Chrome","74.0","Windows","10","undefined","undefined","1920 x 1080","1920 x 1080"
"2wffrje9z2hvkl21jr2ou70mrwvj804h","9999","Female","0","28","right","no","100","rightarrow","505","true","focus","yes","1069179","Chrome","74.0","Windows","10","undefined","undefined","1920 x 1080","1920 x 1080"
"2wffrje9z2hvkl21jr2ou70mrwvj804h","9999","Female","0","29","left","no","100","leftarrow","302","true","focus","yes","1070251","Chrome","74.0","Windows","10","undefined","undefined","1920 x 1080","1920 x 1080"
"2wffrje9z2hvkl21jr2ou70mrwvj804h","9999","Female","0","30","left","yes","100","rightarrow","273","false","focus","yes","1071291","Chrome","74.0","Windows","10","undefined","undefined","1920 x 1080","1920 x 1080"
"2wffrje9z2hvkl21jr2ou70mrwvj804h","9999","Female","0","31","left","no","50","leftarrow","441","true","focus","yes","1073259","Chrome","74.0","Windows","10","undefined","undefined","1920 x 1080","1920 x 1080"
"2wffrje9z2hvkl21jr2ou70mrwvj804h","9999","Female","0","32","right","yes","50","undefined","null","true","focus","yes","1075287","Chrome","74.0","Windows","10","undefined","undefined","1920 x 1080","1920 x 1080"
"2wffrje9z2hvkl21jr2ou70mrwvj804h","9999","Female","1","1","left","no","100","leftarrow","396","true","focus","yes","1095531","Chrome","74.0","Windows","10","undefined","undefined","1920 x 1080","1920 x 1080"
"2wffrje9z2hvkl21jr2ou70mrwvj804h","9999","Female","1","2","left","yes","100","leftarrow","303","false","focus","yes","1096603","Chrome","74.0","Windows","10","undefined","undefined","1920 x 1080","1920 x 1080"
"2wffrje9z2hvkl21jr2ou70mrwvj804h","9999","Female","1","3","left","no","50","leftarrow","388","true","focus","yes","1097755","Chrome","74.0","Windows","10","undefined","undefined","1920 x 1080","1920 x 1080"
"2wffrje9z2hvkl21jr2ou70mrwvj804h","9999","Female","1","4","right","no","50","rightarrow","420","true","focus","yes","1098939","Chrome","74.0","Windows","10","undefined","undefined","1920 x 1080","1920 x 1080"
"2wffrje9z2hvkl21jr2ou70mrwvj804h","9999","Female","1","5","right","no","50","rightarrow","374","true","focus","yes","1100091","Chrome","74.0","Windows","10","undefined","undefined","1920 x 1080","1920 x 1080"
"2wffrje9z2hvkl21jr2ou70mrwvj804h","9999","Female","1","6","right","yes","50","undefined","null","true","focus","yes","1102105","Chrome","74.0","Windows","10","undefined","undefined","1920 x 1080","1920 x 1080"
"2wffrje9z2hvkl21jr2ou70mrwvj804h","9999","Female","1","7","right","no","100","rightarrow","441","true","focus","yes","1103323","Chrome","74.0","Windows","10","undefined","undefined","1920 x 1080","1920 x 1080"
"2wffrje9z2hvkl21jr2ou70mrwvj804h","9999","Female","1","8","left","no","100","leftarrow","407","true","focus","yes","1104507","Chrome","74.0","Windows","10","undefined","undefined","1920 x 1080","1920 x 1080"
"2wffrje9z2hvkl21jr2ou70mrwvj804h","9999","Female","1","9","left","no","100","leftarrow","438","true","focus","yes","1105707","Chrome","74.0","Windows","10","undefined","undefined","1920 x 1080","1920 x 1080"
"2wffrje9z2hvkl21jr2ou70mrwvj804h","9999","Female","1","10","right","yes","100","rightarrow","343","false","focus","yes","1106811","Chrome","74.0","Windows","10","undefined","undefined","1920 x 1080","1920 x 1080"
"2wffrje9z2hvkl21jr2ou70mrwvj804h","9999","Female","1","11","right","no","50","rightarrow","491","true","focus","yes","1108059","Chrome","74.0","Windows","10","undefined","undefined","1920 x 1080","1920 x 1080"
"2wffrje9z2hvkl21jr2ou70mrwvj804h","9999","Female","1","12","left","yes","50","undefined","null","true","focus","yes","1110087","Chrome","74.0","Windows","10","undefined","undefined","1920 x 1080","1920 x 1080"
"2wffrje9z2hvkl21jr2ou70mrwvj804h","9999","Female","1","13","right","no","100","rightarrow","360","true","focus","yes","1111211","Chrome","74.0","Windows","10","undefined","undefined","1920 x 1080","1920 x 1080"
"2wffrje9z2hvkl21jr2ou70mrwvj804h","9999","Female","1","14","right","no","100","rightarrow","332","true","focus","yes","1112315","Chrome","74.0","Windows","10","undefined","undefined","1920 x 1080","1920 x 1080"
"2wffrje9z2hvkl21jr2ou70mrwvj804h","9999","Female","1","15","left","no","100","leftarrow","464","true","focus","yes","1113547","Chrome","74.0","Windows","10","undefined","undefined","1920 x 1080","1920 x 1080"
"2wffrje9z2hvkl21jr2ou70mrwvj804h","9999","Female","1","16","left","no","100","leftarrow","366","true","focus","yes","1114683","Chrome","74.0","Windows","10","undefined","undefined","1920 x 1080","1920 x 1080"
"2wffrje9z2hvkl21jr2ou70mrwvj804h","9999","Female","1","17","right","no","100","rightarrow","368","true","focus","yes","1115835","Chrome","74.0","Windows","10","undefined","undefined","1920 x 1080","1920 x 1080"
"2wffrje9z2hvkl21jr2ou70mrwvj804h","9999","Female","1","18","left","no","100","leftarrow","370","true","focus","yes","1116971","Chrome","74.0","Windows","10","undefined","undefined","1920 x 1080","1920 x 1080"
"2wffrje9z2hvkl21jr2ou70mrwvj804h","9999","Female","1","19","right","no","100","rightarrow","357","true","focus","yes","1118107","Chrome","74.0","Windows","10","undefined","undefined","1920 x 1080","1920 x 1080"
"2wffrje9z2hvkl21jr2ou70mrwvj804h","9999","Female","1","20","right","no","100","rightarrow","392","true","focus","yes","1119275","Chrome","74.0","Windows","10","undefined","undefined","1920 x 1080","1920 x 1080"
"2wffrje9z2hvkl21jr2ou70mrwvj804h","9999","Female","1","21","right","yes","100","undefined","null","true","focus","yes","1121307","Chrome","74.0","Windows","10","undefined","undefined","1920 x 1080","1920 x 1080"
"2wffrje9z2hvkl21jr2ou70mrwvj804h","9999","Female","1","22","left","no","150","leftarrow","359","true","focus","yes","1122427","Chrome","74.0","Windows","10","undefined","undefined","1920 x 1080","1920 x 1080"
"2wffrje9z2hvkl21jr2ou70mrwvj804h","9999","Female","1","23","left","no","150","leftarrow","316","true","focus","yes","1123515","Chrome","74.0","Windows","10","undefined","undefined","1920 x 1080","1920 x 1080"
"2wffrje9z2hvkl21jr2ou70mrwvj804h","9999","Female","1","24","left","yes","150","leftarrow","351","false","focus","yes","1124635","Chrome","74.0","Windows","10","undefined","undefined","1920 x 1080","1920 x 1080"
"2wffrje9z2hvkl21jr2ou70mrwvj804h","9999","Female","1","25","left","yes","100","undefined","null","true","focus","yes","1126673","Chrome","74.0","Windows","10","undefined","undefined","1920 x 1080","1920 x 1080"
"2wffrje9z2hvkl21jr2ou70mrwvj804h","9999","Female","1","26","left","no","150","rightarrow","303","false","focus","yes","1127755","Chrome","74.0","Windows","10","undefined","undefined","1920 x 1080","1920 x 1080"
"2wffrje9z2hvkl21jr2ou70mrwvj804h","9999","Female","1","27","right","no","150","rightarrow","406","true","focus","yes","1128939","Chrome","74.0","Windows","10","undefined","undefined","1920 x 1080","1920 x 1080"
"2wffrje9z2hvkl21jr2ou70mrwvj804h","9999","Female","1","28","right","yes","150","undefined","null","true","focus","yes","1130971","Chrome","74.0","Windows","10","undefined","undefined","1920 x 1080","1920 x 1080"
"2wffrje9z2hvkl21jr2ou70mrwvj804h","9999","Female","1","29","right","no","200","rightarrow","374","true","focus","yes","1132118","Chrome","74.0","Windows","10","undefined","undefined","1920 x 1080","1920 x 1080"
"2wffrje9z2hvkl21jr2ou70mrwvj804h","9999","Female","1","30","left","no","200","leftarrow","472","true","focus","yes","1133366","Chrome","74.0","Windows","10","undefined","undefined","1920 x 1080","1920 x 1080"
"2wffrje9z2hvkl21jr2ou70mrwvj804h","9999","Female","1","31","right","no","200","rightarrow","277","true","focus","yes","1134406","Chrome","74.0","Windows","10","undefined","undefined","1920 x 1080","1920 x 1080"
"2wffrje9z2hvkl21jr2ou70mrwvj804h","9999","Female","1","32","left","no","200","leftarrow","284","true","focus","yes","1135462","Chrome","74.0","Windows","10","undefined","undefined","1920 x 1080","1920 x 1080"
"2wffrje9z2hvkl21jr2ou70mrwvj804h","9999","Female","1","33","left","no","200","leftarrow","482","true","focus","yes","1136726","Chrome","74.0","Windows","10","undefined","undefined","1920 x 1080","1920 x 1080"
"2wffrje9z2hvkl21jr2ou70mrwvj804h","9999","Female","1","34","left","no","200","leftarrow","336","true","focus","yes","1137846","Chrome","74.0","Windows","10","undefined","undefined","1920 x 1080","1920 x 1080"
"2wffrje9z2hvkl21jr2ou70mrwvj804h","9999","Female","1","35","right","no","200","rightarrow","530","true","focus","yes","1139142","Chrome","74.0","Windows","10","undefined","undefined","1920 x 1080","1920 x 1080"
"2wffrje9z2hvkl21jr2ou70mrwvj804h","9999","Female","1","36","right","no","200","rightarrow","414","true","focus","yes","1140326","Chrome","74.0","Windows","10","undefined","undefined","1920 x 1080","1920 x 1080"
"2wffrje9z2hvkl21jr2ou70mrwvj804h","9999","Female","1","37","left","yes","200","leftarrow","399","false","focus","yes","1141494","Chrome","74.0","Windows","10","undefined","undefined","1920 x 1080","1920 x 1080"
"2wffrje9z2hvkl21jr2ou70mrwvj804h","9999","Female","1","38","left","no","150","leftarrow","431","true","focus","yes","1142694","Chrome","74.0","Windows","10","undefined","undefined","1920 x 1080","1920 x 1080"
"2wffrje9z2hvkl21jr2ou70mrwvj804h","9999","Female","1","39","right","no","150","rightarrow","368","true","focus","yes","1143846","Chrome","74.0","Windows","10","undefined","undefined","1920 x 1080","1920 x 1080"
"2wffrje9z2hvkl21jr2ou70mrwvj804h","9999","Female","1","40","right","yes","150","undefined","null","true","focus","yes","1145887","Chrome","74.0","Windows","10","undefined","undefined","1920 x 1080","1920 x 1080"
"2wffrje9z2hvkl21jr2ou70mrwvj804h","9999","Female","1","41","right","yes","200","rightarrow","336","false","focus","yes","1146998","Chrome","74.0","Windows","10","undefined","undefined","1920 x 1080","1920 x 1080"
"2wffrje9z2hvkl21jr2ou70mrwvj804h","9999","Female","1","42","right","no","150","rightarrow","661","true","focus","yes","1148438","Chrome","74.0","Windows","10","undefined","undefined","1920 x 1080","1920 x 1080"
"2wffrje9z2hvkl21jr2ou70mrwvj804h","9999","Female","1","43","right","no","150","rightarrow","587","true","focus","yes","1149798","Chrome","74.0","Windows","10","undefined","undefined","1920 x 1080","1920 x 1080"
"2wffrje9z2hvkl21jr2ou70mrwvj804h","9999","Female","1","44","left","no","150","leftarrow","437","true","focus","yes","1151014","Chrome","74.0","Windows","10","undefined","undefined","1920 x 1080","1920 x 1080"
"2wffrje9z2hvkl21jr2ou70mrwvj804h","9999","Female","1","45","right","no","150","rightarrow","369","true","focus","yes","1152151","Chrome","74.0","Windows","10","undefined","undefined","1920 x 1080","1920 x 1080"
"2wffrje9z2hvkl21jr2ou70mrwvj804h","9999","Female","1","46","left","yes","150","leftarrow","310","false","focus","yes","1153222","Chrome","74.0","Windows","10","undefined","undefined","1920 x 1080","1920 x 1080"
"2wffrje9z2hvkl21jr2ou70mrwvj804h","9999","Female","1","47","left","no","100","leftarrow","523","true","focus","yes","1154518","Chrome","74.0","Windows","10","undefined","undefined","1920 x 1080","1920 x 1080"
"2wffrje9z2hvkl21jr2ou70mrwvj804h","9999","Female","1","48","left","no","100","leftarrow","518","true","focus","yes","1155798","Chrome","74.0","Windows","10","undefined","undefined","1920 x 1080","1920 x 1080"
"2wffrje9z2hvkl21jr2ou70mrwvj804h","9999","Female","1","49","left","no","100","leftarrow","420","true","focus","yes","1156982","Chrome","74.0","Windows","10","undefined","undefined","1920 x 1080","1920 x 1080"
"2wffrje9z2hvkl21jr2ou70mrwvj804h","9999","Female","1","50","right","no","100","rightarrow","516","true","focus","yes","1158262","Chrome","74.0","Windows","10","undefined","undefined","1920 x 1080","1920 x 1080"
"2wffrje9z2hvkl21jr2ou70mrwvj804h","9999","Female","1","51","right","no","100","rightarrow","385","true","focus","yes","1159414","Chrome","74.0","Windows","10","undefined","undefined","1920 x 1080","1920 x 1080"
"2wffrje9z2hvkl21jr2ou70mrwvj804h","9999","Female","1","52","left","yes","100","undefined","null","true","focus","yes","1161436","Chrome","74.0","Windows","10","undefined","undefined","1920 x 1080","1920 x 1080"
"2wffrje9z2hvkl21jr2ou70mrwvj804h","9999","Female","1","53","left","no","150","leftarrow","354","true","focus","yes","1162550","Chrome","74.0","Windows","10","undefined","undefined","1920 x 1080","1920 x 1080"
"2wffrje9z2hvkl21jr2ou70mrwvj804h","9999","Female","1","54","right","no","150","rightarrow","406","true","focus","yes","1163718","Chrome","74.0","Windows","10","undefined","undefined","1920 x 1080","1920 x 1080"
"2wffrje9z2hvkl21jr2ou70mrwvj804h","9999","Female","1","55","right","yes","150","undefined","null","true","focus","yes","1165737","Chrome","74.0","Windows","10","undefined","undefined","1920 x 1080","1920 x 1080"
"2wffrje9z2hvkl21jr2ou70mrwvj804h","9999","Female","1","56","left","no","200","leftarrow","421","true","focus","yes","1166918","Chrome","74.0","Windows","10","undefined","undefined","1920 x 1080","1920 x 1080"
"2wffrje9z2hvkl21jr2ou70mrwvj804h","9999","Female","1","57","right","no","200","rightarrow","329","true","focus","yes","1168022","Chrome","74.0","Windows","10","undefined","undefined","1920 x 1080","1920 x 1080"
"2wffrje9z2hvkl21jr2ou70mrwvj804h","9999","Female","1","58","left","no","200","leftarrow","429","true","focus","yes","1169222","Chrome","74.0","Windows","10","undefined","undefined","1920 x 1080","1920 x 1080"
"2wffrje9z2hvkl21jr2ou70mrwvj804h","9999","Female","1","59","right","yes","200","rightarrow","380","false","focus","yes","1170374","Chrome","74.0","Windows","10","undefined","undefined","1920 x 1080","1920 x 1080"
"2wffrje9z2hvkl21jr2ou70mrwvj804h","9999","Female","1","60","left","no","150","leftarrow","350","true","focus","yes","1171494","Chrome","74.0","Windows","10","undefined","undefined","1920 x 1080","1920 x 1080"
"2wffrje9z2hvkl21jr2ou70mrwvj804h","9999","Female","1","61","right","no","150","rightarrow","337","true","focus","yes","1172614","Chrome","74.0","Windows","10","undefined","undefined","1920 x 1080","1920 x 1080"
"2wffrje9z2hvkl21jr2ou70mrwvj804h","9999","Female","1","62","left","no","150","leftarrow","388","true","focus","yes","1173782","Chrome","74.0","Windows","10","undefined","undefined","1920 x 1080","1920 x 1080"
"2wffrje9z2hvkl21jr2ou70mrwvj804h","9999","Female","1","63","left","yes","150","undefined","null","true","focus","yes","1175821","Chrome","74.0","Windows","10","undefined","undefined","1920 x 1080","1920 x 1080"
"2wffrje9z2hvkl21jr2ou70mrwvj804h","9999","Female","1","64","right","no","200","leftarrow","276","false","focus","yes","1176870","Chrome","74.0","Windows","10","undefined","undefined","1920 x 1080","1920 x 1080"
"2wffrje9z2hvkl21jr2ou70mrwvj804h","9999","Female","2","1","right","no","200","rightarrow","362","true","focus","yes","1196742","Chrome","74.0","Windows","10","undefined","undefined","1920 x 1080","1920 x 1080"
"2wffrje9z2hvkl21jr2ou70mrwvj804h","9999","Female","2","2","left","no","200","leftarrow","302","true","focus","yes","1197814","Chrome","74.0","Windows","10","undefined","undefined","1920 x 1080","1920 x 1080"
"2wffrje9z2hvkl21jr2ou70mrwvj804h","9999","Female","2","3","left","no","200","leftarrow","435","true","focus","yes","1199030","Chrome","74.0","Windows","10","undefined","undefined","1920 x 1080","1920 x 1080"
"2wffrje9z2hvkl21jr2ou70mrwvj804h","9999","Female","2","4","left","no","200","leftarrow","291","true","focus","yes","1200102","Chrome","74.0","Windows","10","undefined","undefined","1920 x 1080","1920 x 1080"
"2wffrje9z2hvkl21jr2ou70mrwvj804h","9999","Female","2","5","left","yes","200","leftarrow","294","false","focus","yes","1201158","Chrome","74.0","Windows","10","undefined","undefined","1920 x 1080","1920 x 1080"
"2wffrje9z2hvkl21jr2ou70mrwvj804h","9999","Female","2","6","right","no","150","rightarrow","366","true","focus","yes","1202294","Chrome","74.0","Windows","10","undefined","undefined","1920 x 1080","1920 x 1080"
"2wffrje9z2hvkl21jr2ou70mrwvj804h","9999","Female","2","7","right","no","150","rightarrow","384","true","focus","yes","1203446","Chrome","74.0","Windows","10","undefined","undefined","1920 x 1080","1920 x 1080"
"2wffrje9z2hvkl21jr2ou70mrwvj804h","9999","Female","2","8","right","yes","150","rightarrow","370","false","focus","yes","1204598","Chrome","74.0","Windows","10","undefined","undefined","1920 x 1080","1920 x 1080"
"2wffrje9z2hvkl21jr2ou70mrwvj804h","9999","Female","2","9","right","no","100","rightarrow","339","true","focus","yes","1205718","Chrome","74.0","Windows","10","undefined","undefined","1920 x 1080","1920 x 1080"
"2wffrje9z2hvkl21jr2ou70mrwvj804h","9999","Female","2","10","left","yes","100","undefined","null","true","focus","yes","1207752","Chrome","74.0","Windows","10","undefined","undefined","1920 x 1080","1920 x 1080"
"2wffrje9z2hvkl21jr2ou70mrwvj804h","9999","Female","2","11","left","no","150","leftarrow","421","true","focus","yes","1208950","Chrome","74.0","Windows","10","undefined","undefined","1920 x 1080","1920 x 1080"
"2wffrje9z2hvkl21jr2ou70mrwvj804h","9999","Female","2","12","right","no","150","rightarrow","359","true","focus","yes","1210086","Chrome","74.0","Windows","10","undefined","undefined","1920 x 1080","1920 x 1080"
"2wffrje9z2hvkl21jr2ou70mrwvj804h","9999","Female","2","13","right","no","150","rightarrow","355","true","focus","yes","1211206","Chrome","74.0","Windows","10","undefined","undefined","1920 x 1080","1920 x 1080"
"2wffrje9z2hvkl21jr2ou70mrwvj804h","9999","Female","2","14","right","yes","150","undefined","null","true","focus","yes","1213237","Chrome","74.0","Windows","10","undefined","undefined","1920 x 1080","1920 x 1080"
"2wffrje9z2hvkl21jr2ou70mrwvj804h","9999","Female","2","15","left","no","200","leftarrow","331","true","focus","yes","1214342","Chrome","74.0","Windows","10","undefined","undefined","1920 x 1080","1920 x 1080"
"2wffrje9z2hvkl21jr2ou70mrwvj804h","9999","Female","2","16","left","no","200","leftarrow","461","true","focus","yes","1215558","Chrome","74.0","Windows","10","undefined","undefined","1920 x 1080","1920 x 1080"
"2wffrje9z2hvkl21jr2ou70mrwvj804h","9999","Female","2","17","left","no","200","leftarrow","414","true","focus","yes","1216742","Chrome","74.0","Windows","10","undefined","undefined","1920 x 1080","1920 x 1080"
"2wffrje9z2hvkl21jr2ou70mrwvj804h","9999","Female","2","18","left","yes","200","leftarrow","366","false","focus","yes","1217878","Chrome","74.0","Windows","10","undefined","undefined","1920 x 1080","1920 x 1080"
"2wffrje9z2hvkl21jr2ou70mrwvj804h","9999","Female","2","19","left","no","150","leftarrow","432","true","focus","yes","1219078","Chrome","74.0","Windows","10","undefined","undefined","1920 x 1080","1920 x 1080"
"2wffrje9z2hvkl21jr2ou70mrwvj804h","9999","Female","2","20","right","no","150","rightarrow","434","true","focus","yes","1220278","Chrome","74.0","Windows","10","undefined","undefined","1920 x 1080","1920 x 1080"
"2wffrje9z2hvkl21jr2ou70mrwvj804h","9999","Female","2","21","right","no","150","rightarrow","433","true","focus","yes","1221494","Chrome","74.0","Windows","10","undefined","undefined","1920 x 1080","1920 x 1080"
"2wffrje9z2hvkl21jr2ou70mrwvj804h","9999","Female","2","22","left","no","150","leftarrow","432","true","focus","yes","1222694","Chrome","74.0","Windows","10","undefined","undefined","1920 x 1080","1920 x 1080"
"2wffrje9z2hvkl21jr2ou70mrwvj804h","9999","Female","2","23","right","yes","150","undefined","null","true","focus","yes","1224737","Chrome","74.0","Windows","10","undefined","undefined","1920 x 1080","1920 x 1080"
"2wffrje9z2hvkl21jr2ou70mrwvj804h","9999","Female","2","24","right","no","200","rightarrow","414","true","focus","yes","1225926","Chrome","74.0","Windows","10","undefined","undefined","1920 x 1080","1920 x 1080"
"2wffrje9z2hvkl21jr2ou70mrwvj804h","9999","Female","2","25","left","yes","200","undefined","null","true","focus","yes","1227958","Chrome","74.0","Windows","10","undefined","undefined","1920 x 1080","1920 x 1080"
"2wffrje9z2hvkl21jr2ou70mrwvj804h","9999","Female","2","26","left","no","250","leftarrow","541","true","focus","yes","1229270","Chrome","74.0","Windows","10","undefined","undefined","1920 x 1080","1920 x 1080"
"2wffrje9z2hvkl21jr2ou70mrwvj804h","9999","Female","2","27","right","yes","250","undefined","null","true","focus","yes","1231295","Chrome","74.0","Windows","10","undefined","undefined","1920 x 1080","1920 x 1080"
"2wffrje9z2hvkl21jr2ou70mrwvj804h","9999","Female","2","28","right","no","300","rightarrow","376","true","focus","yes","1232438","Chrome","74.0","Windows","10","undefined","undefined","1920 x 1080","1920 x 1080"
"2wffrje9z2hvkl21jr2ou70mrwvj804h","9999","Female","2","29","right","no","300","undefined","null","false","focus","yes","1234462","Chrome","74.0","Windows","10","undefined","undefined","1920 x 1080","1920 x 1080"
"2wffrje9z2hvkl21jr2ou70mrwvj804h","9999","Female","2","30","left","no","300","leftarrow","490","true","focus","yes","1235734","Chrome","74.0","Windows","10","undefined","undefined","1920 x 1080","1920 x 1080"
"2wffrje9z2hvkl21jr2ou70mrwvj804h","9999","Female","2","31","right","no","300","rightarrow","374","true","focus","yes","1236870","Chrome","74.0","Windows","10","undefined","undefined","1920 x 1080","1920 x 1080"
"2wffrje9z2hvkl21jr2ou70mrwvj804h","9999","Female","2","32","left","no","300","leftarrow","345","true","focus","yes","1237974","Chrome","74.0","Windows","10","undefined","undefined","1920 x 1080","1920 x 1080"
"2wffrje9z2hvkl21jr2ou70mrwvj804h","9999","Female","2","33","right","no","300","rightarrow","397","true","focus","yes","1239142","Chrome","74.0","Windows","10","undefined","undefined","1920 x 1080","1920 x 1080"
"2wffrje9z2hvkl21jr2ou70mrwvj804h","9999","Female","2","34","right","no","300","rightarrow","494","true","focus","yes","1240406","Chrome","74.0","Windows","10","undefined","undefined","1920 x 1080","1920 x 1080"
"2wffrje9z2hvkl21jr2ou70mrwvj804h","9999","Female","2","35","left","yes","300","leftarrow","380","false","focus","yes","1241558","Chrome","74.0","Windows","10","undefined","undefined","1920 x 1080","1920 x 1080"
"2wffrje9z2hvkl21jr2ou70mrwvj804h","9999","Female","2","36","right","no","250","rightarrow","478","true","focus","yes","1242806","Chrome","74.0","Windows","10","undefined","undefined","1920 x 1080","1920 x 1080"
"2wffrje9z2hvkl21jr2ou70mrwvj804h","9999","Female","2","37","right","yes","250","rightarrow","412","false","focus","yes","1243990","Chrome","74.0","Windows","10","undefined","undefined","1920 x 1080","1920 x 1080"
"2wffrje9z2hvkl21jr2ou70mrwvj804h","9999","Female","2","38","left","no","200","leftarrow","365","true","focus","yes","1245126","Chrome","74.0","Windows","10","undefined","undefined","1920 x 1080","1920 x 1080"
"2wffrje9z2hvkl21jr2ou70mrwvj804h","9999","Female","2","39","left","no","200","leftarrow","317","true","focus","yes","1246214","Chrome","74.0","Windows","10","undefined","undefined","1920 x 1080","1920 x 1080"
"2wffrje9z2hvkl21jr2ou70mrwvj804h","9999","Female","2","40","left","no","200","leftarrow","355","true","focus","yes","1247334","Chrome","74.0","Windows","10","undefined","undefined","1920 x 1080","1920 x 1080"
"2wffrje9z2hvkl21jr2ou70mrwvj804h","9999","Female","2","41","left","no","200","leftarrow","581","true","focus","yes","1248678","Chrome","74.0","Windows","10","undefined","undefined","1920 x 1080","1920 x 1080"
"2wffrje9z2hvkl21jr2ou70mrwvj804h","9999","Female","2","42","right","no","200","rightarrow","544","true","focus","yes","1249990","Chrome","74.0","Windows","10","undefined","undefined","1920 x 1080","1920 x 1080"
"2wffrje9z2hvkl21jr2ou70mrwvj804h","9999","Female","2","43","left","no","200","leftarrow","380","true","focus","yes","1251142","Chrome","74.0","Windows","10","undefined","undefined","1920 x 1080","1920 x 1080"
"2wffrje9z2hvkl21jr2ou70mrwvj804h","9999","Female","2","44","right","yes","200","rightarrow","418","false","focus","yes","1252330","Chrome","74.0","Windows","10","undefined","undefined","1920 x 1080","1920 x 1080"
"2wffrje9z2hvkl21jr2ou70mrwvj804h","9999","Female","2","45","right","no","150","rightarrow","477","true","focus","yes","1253577","Chrome","74.0","Windows","10","undefined","undefined","1920 x 1080","1920 x 1080"
"2wffrje9z2hvkl21jr2ou70mrwvj804h","9999","Female","2","46","right","no","150","rightarrow","379","true","focus","yes","1254713","Chrome","74.0","Windows","10","undefined","undefined","1920 x 1080","1920 x 1080"
"2wffrje9z2hvkl21jr2ou70mrwvj804h","9999","Female","2","47","left","no","150","leftarrow","560","true","focus","yes","1256042","Chrome","74.0","Windows","10","undefined","undefined","1920 x 1080","1920 x 1080"
"2wffrje9z2hvkl21jr2ou70mrwvj804h","9999","Female","2","48","left","yes","150","undefined","null","true","focus","yes","1258074","Chrome","74.0","Windows","10","undefined","undefined","1920 x 1080","1920 x 1080"
"2wffrje9z2hvkl21jr2ou70mrwvj804h","9999","Female","2","49","right","no","200","rightarrow","328","true","focus","yes","1259178","Chrome","74.0","Windows","10","undefined","undefined","1920 x 1080","1920 x 1080"
"2wffrje9z2hvkl21jr2ou70mrwvj804h","9999","Female","2","50","left","no","200","leftarrow","316","true","focus","yes","1260266","Chrome","74.0","Windows","10","undefined","undefined","1920 x 1080","1920 x 1080"
"2wffrje9z2hvkl21jr2ou70mrwvj804h","9999","Female","2","51","left","no","200","rightarrow","304","false","focus","yes","1261354","Chrome","74.0","Windows","10","undefined","undefined","1920 x 1080","1920 x 1080"
"2wffrje9z2hvkl21jr2ou70mrwvj804h","9999","Female","2","52","right","no","200","rightarrow","454","true","focus","yes","1262586","Chrome","74.0","Windows","10","undefined","undefined","1920 x 1080","1920 x 1080"
"2wffrje9z2hvkl21jr2ou70mrwvj804h","9999","Female","2","53","left","yes","200","leftarrow","388","false","focus","yes","1263738","Chrome","74.0","Windows","10","undefined","undefined","1920 x 1080","1920 x 1080"
"2wffrje9z2hvkl21jr2ou70mrwvj804h","9999","Female","2","54","right","no","150","rightarrow","519","true","focus","yes","1265034","Chrome","74.0","Windows","10","undefined","undefined","1920 x 1080","1920 x 1080"
"2wffrje9z2hvkl21jr2ou70mrwvj804h","9999","Female","2","55","left","no","150","leftarrow","416","true","focus","yes","1266218","Chrome","74.0","Windows","10","undefined","undefined","1920 x 1080","1920 x 1080"
"2wffrje9z2hvkl21jr2ou70mrwvj804h","9999","Female","2","56","right","yes","150","undefined","null","true","focus","yes","1268241","Chrome","74.0","Windows","10","undefined","undefined","1920 x 1080","1920 x 1080"
"2wffrje9z2hvkl21jr2ou70mrwvj804h","9999","Female","2","57","left","no","200","leftarrow","358","true","focus","yes","1269370","Chrome","74.0","Windows","10","undefined","undefined","1920 x 1080","1920 x 1080"
"2wffrje9z2hvkl21jr2ou70mrwvj804h","9999","Female","2","58","left","no","200","leftarrow","323","true","focus","yes","1270458","Chrome","74.0","Windows","10","undefined","undefined","1920 x 1080","1920 x 1080"
"2wffrje9z2hvkl21jr2ou70mrwvj804h","9999","Female","2","59","left","no","200","leftarrow","329","true","focus","yes","1271562","Chrome","74.0","Windows","10","undefined","undefined","1920 x 1080","1920 x 1080"
"2wffrje9z2hvkl21jr2ou70mrwvj804h","9999","Female","2","60","right","no","200","rightarrow","429","true","focus","yes","1272762","Chrome","74.0","Windows","10","undefined","undefined","1920 x 1080","1920 x 1080"
"2wffrje9z2hvkl21jr2ou70mrwvj804h","9999","Female","2","61","right","no","200","rightarrow","829","true","focus","yes","1274361","Chrome","74.0","Windows","10","undefined","undefined","1920 x 1080","1920 x 1080"
"2wffrje9z2hvkl21jr2ou70mrwvj804h","9999","Female","2","62","right","yes","200","undefined","null","true","focus","yes","1276395","Chrome","74.0","Windows","10","undefined","undefined","1920 x 1080","1920 x 1080"
"2wffrje9z2hvkl21jr2ou70mrwvj804h","9999","Female","2","63","left","yes","250","leftarrow","445","false","focus","yes","1277609","Chrome","74.0","Windows","10","undefined","undefined","1920 x 1080","1920 x 1080"
"2wffrje9z2hvkl21jr2ou70mrwvj804h","9999","Female","2","64","right","no","200","rightarrow","459","true","focus","yes","1278842","Chrome","74.0","Windows","10","undefined","undefined","1920 x 1080","1920 x 1080"
"2wffrje9z2hvkl21jr2ou70mrwvj804h","9999","Female","3","1","right","no","200","rightarrow","518","true","focus","yes","1298602","Chrome","74.0","Windows","10","undefined","undefined","1920 x 1080","1920 x 1080"
"2wffrje9z2hvkl21jr2ou70mrwvj804h","9999","Female","3","2","left","no","200","leftarrow","835","true","focus","yes","1300202","Chrome","74.0","Windows","10","undefined","undefined","1920 x 1080","1920 x 1080"
"2wffrje9z2hvkl21jr2ou70mrwvj804h","9999","Female","3","3","right","no","200","rightarrow","290","true","focus","yes","1301258","Chrome","74.0","Windows","10","undefined","undefined","1920 x 1080","1920 x 1080"
"2wffrje9z2hvkl21jr2ou70mrwvj804h","9999","Female","3","4","right","yes","200","leftarrow","282","false","focus","yes","1302314","Chrome","74.0","Windows","10","undefined","undefined","1920 x 1080","1920 x 1080"
"2wffrje9z2hvkl21jr2ou70mrwvj804h","9999","Female","3","5","left","no","150","leftarrow","416","true","focus","yes","1303514","Chrome","74.0","Windows","10","undefined","undefined","1920 x 1080","1920 x 1080"
"2wffrje9z2hvkl21jr2ou70mrwvj804h","9999","Female","3","6","left","no","150","leftarrow","415","true","focus","yes","1304698","Chrome","74.0","Windows","10","undefined","undefined","1920 x 1080","1920 x 1080"
"2wffrje9z2hvkl21jr2ou70mrwvj804h","9999","Female","3","7","right","no","150","rightarrow","447","true","focus","yes","1305914","Chrome","74.0","Windows","10","undefined","undefined","1920 x 1080","1920 x 1080"
"2wffrje9z2hvkl21jr2ou70mrwvj804h","9999","Female","3","8","left","yes","150","leftarrow","365","false","focus","yes","1307050","Chrome","74.0","Windows","10","undefined","undefined","1920 x 1080","1920 x 1080"
"2wffrje9z2hvkl21jr2ou70mrwvj804h","9999","Female","3","9","left","yes","100","undefined","null","true","focus","yes","1309089","Chrome","74.0","Windows","10","undefined","undefined","1920 x 1080","1920 x 1080"
"2wffrje9z2hvkl21jr2ou70mrwvj804h","9999","Female","3","10","left","no","150","leftarrow","384","true","focus","yes","1310234","Chrome","74.0","Windows","10","undefined","undefined","1920 x 1080","1920 x 1080"
"2wffrje9z2hvkl21jr2ou70mrwvj804h","9999","Female","3","11","left","no","150","leftarrow","402","true","focus","yes","1311418","Chrome","74.0","Windows","10","undefined","undefined","1920 x 1080","1920 x 1080"
"2wffrje9z2hvkl21jr2ou70mrwvj804h","9999","Female","3","12","right","yes","150","undefined","null","true","focus","yes","1313471","Chrome","74.0","Windows","10","undefined","undefined","1920 x 1080","1920 x 1080"
"2wffrje9z2hvkl21jr2ou70mrwvj804h","9999","Female","3","13","right","no","200","rightarrow","353","true","focus","yes","1314599","Chrome","74.0","Windows","10","undefined","undefined","1920 x 1080","1920 x 1080"
"2wffrje9z2hvkl21jr2ou70mrwvj804h","9999","Female","3","14","right","no","200","rightarrow","371","true","focus","yes","1315734","Chrome","74.0","Windows","10","undefined","undefined","1920 x 1080","1920 x 1080"
"2wffrje9z2hvkl21jr2ou70mrwvj804h","9999","Female","3","15","left","no","200","leftarrow","343","true","focus","yes","1316854","Chrome","74.0","Windows","10","undefined","undefined","1920 x 1080","1920 x 1080"
"2wffrje9z2hvkl21jr2ou70mrwvj804h","9999","Female","3","16","right","no","200","rightarrow","313","true","focus","yes","1317942","Chrome","74.0","Windows","10","undefined","undefined","1920 x 1080","1920 x 1080"
"2wffrje9z2hvkl21jr2ou70mrwvj804h","9999","Female","3","17","left","no","200","leftarrow","334","true","focus","yes","1319046","Chrome","74.0","Windows","10","undefined","undefined","1920 x 1080","1920 x 1080"
"2wffrje9z2hvkl21jr2ou70mrwvj804h","9999","Female","3","18","right","yes","200","rightarrow","321","false","focus","yes","1320135","Chrome","74.0","Windows","10","undefined","undefined","1920 x 1080","1920 x 1080"
"2wffrje9z2hvkl21jr2ou70mrwvj804h","9999","Female","3","19","left","no","150","leftarrow","342","true","focus","yes","1321239","Chrome","74.0","Windows","10","undefined","undefined","1920 x 1080","1920 x 1080"
"2wffrje9z2hvkl21jr2ou70mrwvj804h","9999","Female","3","20","right","no","150","rightarrow","346","true","focus","yes","1322358","Chrome","74.0","Windows","10","undefined","undefined","1920 x 1080","1920 x 1080"
"2wffrje9z2hvkl21jr2ou70mrwvj804h","9999","Female","3","21","right","no","150","rightarrow","398","true","focus","yes","1323526","Chrome","74.0","Windows","10","undefined","undefined","1920 x 1080","1920 x 1080"
"2wffrje9z2hvkl21jr2ou70mrwvj804h","9999","Female","3","22","right","no","150","rightarrow","559","true","focus","yes","1324854","Chrome","74.0","Windows","10","undefined","undefined","1920 x 1080","1920 x 1080"
"2wffrje9z2hvkl21jr2ou70mrwvj804h","9999","Female","3","23","left","yes","150","undefined","null","true","focus","yes","1326888","Chrome","74.0","Windows","10","undefined","undefined","1920 x 1080","1920 x 1080"
"2wffrje9z2hvkl21jr2ou70mrwvj804h","9999","Female","3","24","left","no","200","rightarrow","343","false","focus","yes","1328006","Chrome","74.0","Windows","10","undefined","undefined","1920 x 1080","1920 x 1080"
"2wffrje9z2hvkl21jr2ou70mrwvj804h","9999","Female","3","25","left","no","200","leftarrow","461","true","focus","yes","1329239","Chrome","74.0","Windows","10","undefined","undefined","1920 x 1080","1920 x 1080"
"2wffrje9z2hvkl21jr2ou70mrwvj804h","9999","Female","3","26","left","yes","200","leftarrow","458","false","focus","yes","1330470","Chrome","74.0","Windows","10","undefined","undefined","1920 x 1080","1920 x 1080"
"2wffrje9z2hvkl21jr2ou70mrwvj804h","9999","Female","3","27","right","no","150","rightarrow","393","true","focus","yes","1331638","Chrome","74.0","Windows","10","undefined","undefined","1920 x 1080","1920 x 1080"
"2wffrje9z2hvkl21jr2ou70mrwvj804h","9999","Female","3","28","right","no","150","rightarrow","379","true","focus","yes","1332791","Chrome","74.0","Windows","10","undefined","undefined","1920 x 1080","1920 x 1080"
"2wffrje9z2hvkl21jr2ou70mrwvj804h","9999","Female","3","29","right","yes","150","undefined","null","true","focus","yes","1334820","Chrome","74.0","Windows","10","undefined","undefined","1920 x 1080","1920 x 1080"
"2wffrje9z2hvkl21jr2ou70mrwvj804h","9999","Female","3","30","left","no","200","leftarrow","315","true","focus","yes","1335910","Chrome","74.0","Windows","10","undefined","undefined","1920 x 1080","1920 x 1080"
"2wffrje9z2hvkl21jr2ou70mrwvj804h","9999","Female","3","31","left","no","200","leftarrow","335","true","focus","yes","1337014","Chrome","74.0","Windows","10","undefined","undefined","1920 x 1080","1920 x 1080"
"2wffrje9z2hvkl21jr2ou70mrwvj804h","9999","Female","3","32","right","no","200","rightarrow","483","true","focus","yes","1338262","Chrome","74.0","Windows","10","undefined","undefined","1920 x 1080","1920 x 1080"
"2wffrje9z2hvkl21jr2ou70mrwvj804h","9999","Female","3","33","right","no","200","rightarrow","432","true","focus","yes","1339463","Chrome","74.0","Windows","10","undefined","undefined","1920 x 1080","1920 x 1080"
"2wffrje9z2hvkl21jr2ou70mrwvj804h","9999","Female","3","34","right","no","200","rightarrow","417","true","focus","yes","1340662","Chrome","74.0","Windows","10","undefined","undefined","1920 x 1080","1920 x 1080"
"2wffrje9z2hvkl21jr2ou70mrwvj804h","9999","Female","3","35","left","no","200","leftarrow","465","true","focus","yes","1341894","Chrome","74.0","Windows","10","undefined","undefined","1920 x 1080","1920 x 1080"
"2wffrje9z2hvkl21jr2ou70mrwvj804h","9999","Female","3","36","right","yes","200","undefined","null","true","focus","yes","1343940","Chrome","74.0","Windows","10","undefined","undefined","1920 x 1080","1920 x 1080"
"2wffrje9z2hvkl21jr2ou70mrwvj804h","9999","Female","3","37","right","no","250","rightarrow","480","true","focus","yes","1345191","Chrome","74.0","Windows","10","undefined","undefined","1920 x 1080","1920 x 1080"
"2wffrje9z2hvkl21jr2ou70mrwvj804h","9999","Female","3","38","left","no","250","leftarrow","444","true","focus","yes","1346407","Chrome","74.0","Windows","10","undefined","undefined","1920 x 1080","1920 x 1080"
"2wffrje9z2hvkl21jr2ou70mrwvj804h","9999","Female","3","39","left","yes","250","leftarrow","348","false","focus","yes","1347526","Chrome","74.0","Windows","10","undefined","undefined","1920 x 1080","1920 x 1080"
"2wffrje9z2hvkl21jr2ou70mrwvj804h","9999","Female","3","40","left","no","200","leftarrow","495","true","focus","yes","1348790","Chrome","74.0","Windows","10","undefined","undefined","1920 x 1080","1920 x 1080"
"2wffrje9z2hvkl21jr2ou70mrwvj804h","9999","Female","3","41","left","yes","200","leftarrow","428","false","focus","yes","1349991","Chrome","74.0","Windows","10","undefined","undefined","1920 x 1080","1920 x 1080"
"2wffrje9z2hvkl21jr2ou70mrwvj804h","9999","Female","3","42","right","yes","150","undefined","null","true","focus","yes","1352020","Chrome","74.0","Windows","10","undefined","undefined","1920 x 1080","1920 x 1080"
"2wffrje9z2hvkl21jr2ou70mrwvj804h","9999","Female","3","43","left","no","200","leftarrow","331","true","focus","yes","1353126","Chrome","74.0","Windows","10","undefined","undefined","1920 x 1080","1920 x 1080"
"2wffrje9z2hvkl21jr2ou70mrwvj804h","9999","Female","3","44","left","no","200","leftarrow","334","true","focus","yes","1354230","Chrome","74.0","Windows","10","undefined","undefined","1920 x 1080","1920 x 1080"
"2wffrje9z2hvkl21jr2ou70mrwvj804h","9999","Female","3","45","right","no","200","rightarrow","545","true","focus","yes","1355542","Chrome","74.0","Windows","10","undefined","undefined","1920 x 1080","1920 x 1080"
"2wffrje9z2hvkl21jr2ou70mrwvj804h","9999","Female","3","46","left","no","200","leftarrow","398","true","focus","yes","1356710","Chrome","74.0","Windows","10","undefined","undefined","1920 x 1080","1920 x 1080"
"2wffrje9z2hvkl21jr2ou70mrwvj804h","9999","Female","3","47","right","no","200","rightarrow","462","true","focus","yes","1357942","Chrome","74.0","Windows","10","undefined","undefined","1920 x 1080","1920 x 1080"
"2wffrje9z2hvkl21jr2ou70mrwvj804h","9999","Female","3","48","right","no","200","rightarrow","494","true","focus","yes","1359207","Chrome","74.0","Windows","10","undefined","undefined","1920 x 1080","1920 x 1080"
"2wffrje9z2hvkl21jr2ou70mrwvj804h","9999","Female","3","49","right","no","200","rightarrow","540","true","focus","yes","1360519","Chrome","74.0","Windows","10","undefined","undefined","1920 x 1080","1920 x 1080"
"2wffrje9z2hvkl21jr2ou70mrwvj804h","9999","Female","3","50","right","yes","200","rightarrow","343","false","focus","yes","1361622","Chrome","74.0","Windows","10","undefined","undefined","1920 x 1080","1920 x 1080"
"2wffrje9z2hvkl21jr2ou70mrwvj804h","9999","Female","3","51","left","no","150","leftarrow","426","true","focus","yes","1362822","Chrome","74.0","Windows","10","undefined","undefined","1920 x 1080","1920 x 1080"
"2wffrje9z2hvkl21jr2ou70mrwvj804h","9999","Female","3","52","left","yes","150","undefined","null","true","focus","yes","1364854","Chrome","74.0","Windows","10","undefined","undefined","1920 x 1080","1920 x 1080"
"2wffrje9z2hvkl21jr2ou70mrwvj804h","9999","Female","3","53","right","no","200","rightarrow","376","true","focus","yes","1365991","Chrome","74.0","Windows","10","undefined","undefined","1920 x 1080","1920 x 1080"
"2wffrje9z2hvkl21jr2ou70mrwvj804h","9999","Female","3","54","right","no","200","rightarrow","413","true","focus","yes","1367174","Chrome","74.0","Windows","10","undefined","undefined","1920 x 1080","1920 x 1080"
"2wffrje9z2hvkl21jr2ou70mrwvj804h","9999","Female","3","55","left","no","200","leftarrow","510","true","focus","yes","1368455","Chrome","74.0","Windows","10","undefined","undefined","1920 x 1080","1920 x 1080"
"2wffrje9z2hvkl21jr2ou70mrwvj804h","9999","Female","3","56","left","no","200","leftarrow","392","true","focus","yes","1369622","Chrome","74.0","Windows","10","undefined","undefined","1920 x 1080","1920 x 1080"
"2wffrje9z2hvkl21jr2ou70mrwvj804h","9999","Female","3","57","right","no","200","rightarrow","729","true","focus","yes","1371111","Chrome","74.0","Windows","10","undefined","undefined","1920 x 1080","1920 x 1080"
"2wffrje9z2hvkl21jr2ou70mrwvj804h","9999","Female","3","58","right","no","200","rightarrow","288","true","focus","yes","1372167","Chrome","74.0","Windows","10","undefined","undefined","1920 x 1080","1920 x 1080"
"2wffrje9z2hvkl21jr2ou70mrwvj804h","9999","Female","3","59","right","no","200","rightarrow","421","true","focus","yes","1373367","Chrome","74.0","Windows","10","undefined","undefined","1920 x 1080","1920 x 1080"
"2wffrje9z2hvkl21jr2ou70mrwvj804h","9999","Female","3","60","left","yes","200","rightarrow","325","false","focus","yes","1374463","Chrome","74.0","Windows","10","undefined","undefined","1920 x 1080","1920 x 1080"
"2wffrje9z2hvkl21jr2ou70mrwvj804h","9999","Female","3","61","left","no","150","leftarrow","698","true","focus","yes","1375935","Chrome","74.0","Windows","10","undefined","undefined","1920 x 1080","1920 x 1080"
"2wffrje9z2hvkl21jr2ou70mrwvj804h","9999","Female","3","62","right","yes","150","undefined","null","true","focus","yes","1377965","Chrome","74.0","Windows","10","undefined","undefined","1920 x 1080","1920 x 1080"
"2wffrje9z2hvkl21jr2ou70mrwvj804h","9999","Female","3","63","left","no","200","leftarrow","318","true","focus","yes","1379055","Chrome","74.0","Windows","10","undefined","undefined","1920 x 1080","1920 x 1080"
"2wffrje9z2hvkl21jr2ou70mrwvj804h","9999","Female","3","64","left","no","200","leftarrow","385","true","focus","yes","1380207","Chrome","74.0","Windows","10","undefined","undefined","1920 x 1080","1920 x 1080"
"2wffrje9z2hvkl21jr2ou70mrwvj804h","9999","Female","4","1","left","no","200","leftarrow","926","true","focus","yes","1400366","Chrome","74.0","Windows","10","undefined","undefined","1920 x 1080","1920 x 1080"
"2wffrje9z2hvkl21jr2ou70mrwvj804h","9999","Female","4","2","right","no","200","rightarrow","333","true","focus","yes","1401471","Chrome","74.0","Windows","10","undefined","undefined","1920 x 1080","1920 x 1080"
"2wffrje9z2hvkl21jr2ou70mrwvj804h","9999","Female","4","3","right","no","200","rightarrow","527","true","focus","yes","1402767","Chrome","74.0","Windows","10","undefined","undefined","1920 x 1080","1920 x 1080"
"2wffrje9z2hvkl21jr2ou70mrwvj804h","9999","Female","4","4","right","no","200","rightarrow","461","true","focus","yes","1403999","Chrome","74.0","Windows","10","undefined","undefined","1920 x 1080","1920 x 1080"
"2wffrje9z2hvkl21jr2ou70mrwvj804h","9999","Female","4","5","left","yes","200","leftarrow","429","false","focus","yes","1405199","Chrome","74.0","Windows","10","undefined","undefined","1920 x 1080","1920 x 1080"
"2wffrje9z2hvkl21jr2ou70mrwvj804h","9999","Female","4","6","left","no","150","leftarrow","412","true","focus","yes","1406383","Chrome","74.0","Windows","10","undefined","undefined","1920 x 1080","1920 x 1080"
"2wffrje9z2hvkl21jr2ou70mrwvj804h","9999","Female","4","7","right","yes","150","undefined","null","true","focus","yes","1408415","Chrome","74.0","Windows","10","undefined","undefined","1920 x 1080","1920 x 1080"
"2wffrje9z2hvkl21jr2ou70mrwvj804h","9999","Female","4","8","left","no","200","rightarrow","283","false","focus","yes","1409471","Chrome","74.0","Windows","10","undefined","undefined","1920 x 1080","1920 x 1080"
"2wffrje9z2hvkl21jr2ou70mrwvj804h","9999","Female","4","9","left","no","200","leftarrow","511","true","focus","yes","1410751","Chrome","74.0","Windows","10","undefined","undefined","1920 x 1080","1920 x 1080"
"2wffrje9z2hvkl21jr2ou70mrwvj804h","9999","Female","4","10","right","no","200","rightarrow","366","true","focus","yes","1411887","Chrome","74.0","Windows","10","undefined","undefined","1920 x 1080","1920 x 1080"
"2wffrje9z2hvkl21jr2ou70mrwvj804h","9999","Female","4","11","left","no","200","leftarrow","511","true","focus","yes","1413167","Chrome","74.0","Windows","10","undefined","undefined","1920 x 1080","1920 x 1080"
"2wffrje9z2hvkl21jr2ou70mrwvj804h","9999","Female","4","12","right","no","200","rightarrow","397","true","focus","yes","1414335","Chrome","74.0","Windows","10","undefined","undefined","1920 x 1080","1920 x 1080"
"2wffrje9z2hvkl21jr2ou70mrwvj804h","9999","Female","4","13","left","no","200","leftarrow","335","true","focus","yes","1415439","Chrome","74.0","Windows","10","undefined","undefined","1920 x 1080","1920 x 1080"
"2wffrje9z2hvkl21jr2ou70mrwvj804h","9999","Female","4","14","right","no","200","rightarrow","386","true","focus","yes","1416607","Chrome","74.0","Windows","10","undefined","undefined","1920 x 1080","1920 x 1080"
"2wffrje9z2hvkl21jr2ou70mrwvj804h","9999","Female","4","15","left","yes","200","leftarrow","339","false","focus","yes","1417727","Chrome","74.0","Windows","10","undefined","undefined","1920 x 1080","1920 x 1080"
"2wffrje9z2hvkl21jr2ou70mrwvj804h","9999","Female","4","16","right","yes","150","undefined","null","true","focus","yes","1419766","Chrome","74.0","Windows","10","undefined","undefined","1920 x 1080","1920 x 1080"
"2wffrje9z2hvkl21jr2ou70mrwvj804h","9999","Female","4","17","left","no","200","leftarrow","467","true","focus","yes","1421007","Chrome","74.0","Windows","10","undefined","undefined","1920 x 1080","1920 x 1080"
"2wffrje9z2hvkl21jr2ou70mrwvj804h","9999","Female","4","18","right","yes","200","rightarrow","466","false","focus","yes","1422239","Chrome","74.0","Windows","10","undefined","undefined","1920 x 1080","1920 x 1080"
"2wffrje9z2hvkl21jr2ou70mrwvj804h","9999","Female","4","19","left","yes","150","leftarrow","320","false","focus","yes","1423327","Chrome","74.0","Windows","10","undefined","undefined","1920 x 1080","1920 x 1080"
"2wffrje9z2hvkl21jr2ou70mrwvj804h","9999","Female","4","20","left","no","100","leftarrow","710","true","focus","yes","1424814","Chrome","74.0","Windows","10","undefined","undefined","1920 x 1080","1920 x 1080"
"2wffrje9z2hvkl21jr2ou70mrwvj804h","9999","Female","4","21","left","no","100","leftarrow","492","true","focus","yes","1426079","Chrome","74.0","Windows","10","undefined","undefined","1920 x 1080","1920 x 1080"
"2wffrje9z2hvkl21jr2ou70mrwvj804h","9999","Female","4","22","right","no","100","rightarrow","520","true","focus","yes","1427375","Chrome","74.0","Windows","10","undefined","undefined","1920 x 1080","1920 x 1080"
"2wffrje9z2hvkl21jr2ou70mrwvj804h","9999","Female","4","23","right","no","100","rightarrow","435","true","focus","yes","1428575","Chrome","74.0","Windows","10","undefined","undefined","1920 x 1080","1920 x 1080"
"2wffrje9z2hvkl21jr2ou70mrwvj804h","9999","Female","4","24","right","no","100","rightarrow","484","true","focus","yes","1429839","Chrome","74.0","Windows","10","undefined","undefined","1920 x 1080","1920 x 1080"
"2wffrje9z2hvkl21jr2ou70mrwvj804h","9999","Female","4","25","right","no","100","rightarrow","433","true","focus","yes","1431054","Chrome","74.0","Windows","10","undefined","undefined","1920 x 1080","1920 x 1080"
"2wffrje9z2hvkl21jr2ou70mrwvj804h","9999","Female","4","26","left","yes","100","undefined","null","true","focus","yes","1433096","Chrome","74.0","Windows","10","undefined","undefined","1920 x 1080","1920 x 1080"
"2wffrje9z2hvkl21jr2ou70mrwvj804h","9999","Female","4","27","right","no","150","leftarrow","271","false","focus","yes","1434150","Chrome","74.0","Windows","10","undefined","undefined","1920 x 1080","1920 x 1080"
"2wffrje9z2hvkl21jr2ou70mrwvj804h","9999","Female","4","28","right","yes","150","undefined","null","true","focus","yes","1436187","Chrome","74.0","Windows","10","undefined","undefined","1920 x 1080","1920 x 1080"
"2wffrje9z2hvkl21jr2ou70mrwvj804h","9999","Female","4","29","left","no","200","leftarrow","468","true","focus","yes","1437415","Chrome","74.0","Windows","10","undefined","undefined","1920 x 1080","1920 x 1080"
"2wffrje9z2hvkl21jr2ou70mrwvj804h","9999","Female","4","30","right","no","200","rightarrow","466","true","focus","yes","1438647","Chrome","74.0","Windows","10","undefined","undefined","1920 x 1080","1920 x 1080"
"2wffrje9z2hvkl21jr2ou70mrwvj804h","9999","Female","4","31","left","no","200","leftarrow","447","true","focus","yes","1439863","Chrome","74.0","Windows","10","undefined","undefined","1920 x 1080","1920 x 1080"
"2wffrje9z2hvkl21jr2ou70mrwvj804h","9999","Female","4","32","left","no","200","leftarrow","608","true","focus","yes","1441254","Chrome","74.0","Windows","10","undefined","undefined","1920 x 1080","1920 x 1080"
"2wffrje9z2hvkl21jr2ou70mrwvj804h","9999","Female","4","33","left","no","200","leftarrow","458","true","focus","yes","1442487","Chrome","74.0","Windows","10","undefined","undefined","1920 x 1080","1920 x 1080"
"2wffrje9z2hvkl21jr2ou70mrwvj804h","9999","Female","4","34","right","yes","200","undefined","null","true","focus","yes","1444525","Chrome","74.0","Windows","10","undefined","undefined","1920 x 1080","1920 x 1080"
"2wffrje9z2hvkl21jr2ou70mrwvj804h","9999","Female","4","35","left","no","250","leftarrow","438","true","focus","yes","1445735","Chrome","74.0","Windows","10","undefined","undefined","1920 x 1080","1920 x 1080"
"2wffrje9z2hvkl21jr2ou70mrwvj804h","9999","Female","4","36","right","no","250","rightarrow","453","true","focus","yes","1446951","Chrome","74.0","Windows","10","undefined","undefined","1920 x 1080","1920 x 1080"
"2wffrje9z2hvkl21jr2ou70mrwvj804h","9999","Female","4","37","left","yes","250","undefined","null","true","focus","yes","1448980","Chrome","74.0","Windows","10","undefined","undefined","1920 x 1080","1920 x 1080"
"2wffrje9z2hvkl21jr2ou70mrwvj804h","9999","Female","4","38","right","no","300","rightarrow","451","true","focus","yes","1450214","Chrome","74.0","Windows","10","undefined","undefined","1920 x 1080","1920 x 1080"
"2wffrje9z2hvkl21jr2ou70mrwvj804h","9999","Female","4","39","left","no","300","leftarrow","436","true","focus","yes","1451430","Chrome","74.0","Windows","10","undefined","undefined","1920 x 1080","1920 x 1080"
"2wffrje9z2hvkl21jr2ou70mrwvj804h","9999","Female","4","40","right","no","300","rightarrow","433","true","focus","yes","1452647","Chrome","74.0","Windows","10","undefined","undefined","1920 x 1080","1920 x 1080"
"2wffrje9z2hvkl21jr2ou70mrwvj804h","9999","Female","4","41","left","yes","300","leftarrow","401","false","focus","yes","1453831","Chrome","74.0","Windows","10","undefined","undefined","1920 x 1080","1920 x 1080"
"2wffrje9z2hvkl21jr2ou70mrwvj804h","9999","Female","4","42","left","no","250","leftarrow","386","true","focus","yes","1454999","Chrome","74.0","Windows","10","undefined","undefined","1920 x 1080","1920 x 1080"
"2wffrje9z2hvkl21jr2ou70mrwvj804h","9999","Female","4","43","right","yes","250","undefined","null","true","focus","yes","1457029","Chrome","74.0","Windows","10","undefined","undefined","1920 x 1080","1920 x 1080"
"2wffrje9z2hvkl21jr2ou70mrwvj804h","9999","Female","4","44","right","no","300","rightarrow","452","true","focus","yes","1458263","Chrome","74.0","Windows","10","undefined","undefined","1920 x 1080","1920 x 1080"
"2wffrje9z2hvkl21jr2ou70mrwvj804h","9999","Female","4","45","right","no","300","rightarrow","384","true","focus","yes","1459414","Chrome","74.0","Windows","10","undefined","undefined","1920 x 1080","1920 x 1080"
"2wffrje9z2hvkl21jr2ou70mrwvj804h","9999","Female","4","46","left","no","300","leftarrow","482","true","focus","yes","1460678","Chrome","74.0","Windows","10","undefined","undefined","1920 x 1080","1920 x 1080"
"2wffrje9z2hvkl21jr2ou70mrwvj804h","9999","Female","4","47","left","no","300","leftarrow","607","true","focus","yes","1462055","Chrome","74.0","Windows","10","undefined","undefined","1920 x 1080","1920 x 1080"
"2wffrje9z2hvkl21jr2ou70mrwvj804h","9999","Female","4","48","right","no","300","rightarrow","489","true","focus","yes","1463319","Chrome","74.0","Windows","10","undefined","undefined","1920 x 1080","1920 x 1080"
"2wffrje9z2hvkl21jr2ou70mrwvj804h","9999","Female","4","49","right","no","300","rightarrow","406","true","focus","yes","1464503","Chrome","74.0","Windows","10","undefined","undefined","1920 x 1080","1920 x 1080"
"2wffrje9z2hvkl21jr2ou70mrwvj804h","9999","Female","4","50","right","yes","300","rightarrow","406","false","focus","yes","1465670","Chrome","74.0","Windows","10","undefined","undefined","1920 x 1080","1920 x 1080"
"2wffrje9z2hvkl21jr2ou70mrwvj804h","9999","Female","4","51","right","no","250","rightarrow","1001","true","focus","yes","1467447","Chrome","74.0","Windows","10","undefined","undefined","1920 x 1080","1920 x 1080"
"2wffrje9z2hvkl21jr2ou70mrwvj804h","9999","Female","4","52","left","no","250","leftarrow","545","true","focus","yes","1468774","Chrome","74.0","Windows","10","undefined","undefined","1920 x 1080","1920 x 1080"
"2wffrje9z2hvkl21jr2ou70mrwvj804h","9999","Female","4","53","left","no","250","leftarrow","541","true","focus","yes","1470087","Chrome","74.0","Windows","10","undefined","undefined","1920 x 1080","1920 x 1080"
"2wffrje9z2hvkl21jr2ou70mrwvj804h","9999","Female","4","54","right","no","250","rightarrow","344","true","focus","yes","1471191","Chrome","74.0","Windows","10","undefined","undefined","1920 x 1080","1920 x 1080"
"2wffrje9z2hvkl21jr2ou70mrwvj804h","9999","Female","4","55","left","yes","250","leftarrow","348","false","focus","yes","1472311","Chrome","74.0","Windows","10","undefined","undefined","1920 x 1080","1920 x 1080"
"2wffrje9z2hvkl21jr2ou70mrwvj804h","9999","Female","4","56","left","no","200","leftarrow","479","true","focus","yes","1473575","Chrome","74.0","Windows","10","undefined","undefined","1920 x 1080","1920 x 1080"
"2wffrje9z2hvkl21jr2ou70mrwvj804h","9999","Female","4","57","right","yes","200","undefined","null","true","focus","yes","1475609","Chrome","74.0","Windows","10","undefined","undefined","1920 x 1080","1920 x 1080"
"2wffrje9z2hvkl21jr2ou70mrwvj804h","9999","Female","4","58","left","yes","250","leftarrow","395","false","focus","yes","1476775","Chrome","74.0","Windows","10","undefined","undefined","1920 x 1080","1920 x 1080"
"2wffrje9z2hvkl21jr2ou70mrwvj804h","9999","Female","4","59","left","no","200","leftarrow","604","true","focus","yes","1478151","Chrome","74.0","Windows","10","undefined","undefined","1920 x 1080","1920 x 1080"
"2wffrje9z2hvkl21jr2ou70mrwvj804h","9999","Female","4","60","left","no","200","leftarrow","483","true","focus","yes","1479399","Chrome","74.0","Windows","10","undefined","undefined","1920 x 1080","1920 x 1080"
"2wffrje9z2hvkl21jr2ou70mrwvj804h","9999","Female","4","61","left","no","200","leftarrow","436","true","focus","yes","1480599","Chrome","74.0","Windows","10","undefined","undefined","1920 x 1080","1920 x 1080"
"2wffrje9z2hvkl21jr2ou70mrwvj804h","9999","Female","4","62","right","no","200","rightarrow","500","true","focus","yes","1481879","Chrome","74.0","Windows","10","undefined","undefined","1920 x 1080","1920 x 1080"
"2wffrje9z2hvkl21jr2ou70mrwvj804h","9999","Female","4","63","right","no","200","rightarrow","433","true","focus","yes","1483095","Chrome","74.0","Windows","10","undefined","undefined","1920 x 1080","1920 x 1080"
"2wffrje9z2hvkl21jr2ou70mrwvj804h","9999","Female","4","64","right","no","200","rightarrow","414","true","focus","yes","1484279","Chrome","74.0","Windows","10","undefined","undefined","1920 x 1080","1920 x 1080"
