build	computer.platform	date	time	subject	group	blockcode	blocknum	trialcode	trialnum	stimulusitem1	parameters.focusx	parameters.focusy	parameters.focuscolor	stimulusitem2	parameters.targetcolor	parameters.targetsize	parameters.fixed	parameters.targetx	parameters.targety	parameters.maxtrialnumber	trial.SRTT.count	values.stiminterval	response	correct	latency	trial.SRTT.meanlatency	trial.SRTT.medianlatency	trial.SRTT.minlatency	trial.SRTT.maxlatency	trial.SRTT.sdlatency	trial.SRTT.varlatency	trial.SRTT.totalmeanlatency	trial.SRTT.totalmedianlatency	trial.SRTT.totalminlatency	trial.SRTT.totalmaxlatency	trial.SRTT.totalsdlatency	trial.SRTT.totalvarlatency
5.0.11.0	win	012720	14:28:09	006	2	practice	1	SRTT	1	+	50pct	50pct	#000000	0	#ff0000	10pct	0	50pct	50pct	20	1	5000	57	1	389	389	389	389	389	0	0	389	389	389	389	0	0
5.0.11.0	win	012720	14:28:09	006	2	practice	1	SRTT	2	+	50pct	50pct	#000000	0	#ff0000	10pct	0	50pct	50pct	20	2	4000	57	1	356	372.5	373	356	389	23.334523779156068457	544.5	372.5	373	356	389	23.334523779156068457	544.5
5.0.11.0	win	012720	14:28:09	006	2	practice	1	SRTT	3	+	50pct	50pct	#000000	0	#ff0000	10pct	0	50pct	50pct	20	3	2000	57	1	358	367.6666666666666856145	358	356	389	18.5022521151705561238	342.3333333333333143855	367.6666666666666856145	358	356	389	18.5022521151705561238	342.3333333333333143855
5.0.11.0	win	012720	14:28:09	006	2	SRTTblock	2	SRTT	1	+	50pct	50pct	#000000	0	#ff0000	10pct	0	50pct	50pct	20	1	7000	57	1	249	249	249	249	249	0	0	338	357	249	389	61.226355980628689224	3748.6666666666665150842
5.0.11.0	win	012720	14:28:09	006	2	SRTTblock	2	SRTT	2	+	50pct	50pct	#000000	0	#ff0000	10pct	0	50pct	50pct	20	2	5000	57	1	486	367.5	368	249	486	167.5843071412117524233	28084.5	367.6000000000000227374	358	249	486	84.8074289198770543408	7192.2999999999992724042
5.0.11.0	win	012720	14:28:09	006	2	SRTTblock	2	SRTT	3	+	50pct	50pct	#000000	0	#ff0000	10pct	0	50pct	50pct	20	3	8000	57	1	369	368	369	249	486	118.5031645147082173253	14043	367.8333333333333143855	364	249	486	75.8562236515018355476	5754.1666666666660603369
5.0.11.0	win	012720	14:28:09	006	2	SRTTblock	2	SRTT	4	+	50pct	50pct	#000000	0	#ff0000	10pct	0	50pct	50pct	20	4	4000	57	1	11441	3136.25	428	249	11441	5537.3454154495366310584	30662194.25	1949.7142857142857792496	369	249	11441	4185.8364243515979978838	17521226.5714285708963871002
5.0.11.0	win	012720	14:28:09	006	2	SRTTblock	2	SRTT	5	+	50pct	50pct	#000000	0	#ff0000	10pct	0	50pct	50pct	20	5	4000	57	1	454	2599.8000000000001818989	454	249	11441	4943.2316049321425452945	24435538.7000000029802322388	1762.75	379	249	11441	3911.2452437993269995786	15297839.3571428563445806503
5.0.11.0	win	012720	14:28:09	006	2	SRTTblock	2	SRTT	6	+	50pct	50pct	#000000	0	#ff0000	10pct	0	50pct	50pct	20	6	3000	57	1	298	2216.1666666666665150842	412	249	11441	4520.11926465073156578	20431478.1666666679084300995	1600	369	249	11441	3691.0699668253378149529	13623997.5
5.0.11.0	win	012720	14:28:09	006	2	SRTTblock	2	SRTT	7	+	50pct	50pct	#000000	0	#ff0000	10pct	0	50pct	50pct	20	7	5000	57	1	51221	9216.8571428571431169985	454	249	51221	18976.1403296224561927374	360093901.8095238208770751953	6562.1000000000003637979	379	249	51221	16072.7901778129362355685	258334584.1000000238418579102
5.0.11.0	win	012720	14:28:09	006	2	SRTTblock	2	SRTT	8	+	50pct	50pct	#000000	0	#ff0000	10pct	0	50pct	50pct	20	8	6000	57	1	1651	8271.125	470	249	51221	17770.9648056879559590016	315807190.125	6115.636363636363967089	389	249	51221	15319.7177929146400856553	234693753.2545453906059265137
5.0.11.0	win	012720	14:28:09	006	2	SRTTblock	2	SRTT	9	+	50pct	50pct	#000000	0	#ff0000	10pct	0	50pct	50pct	20	9	2000	57	1	1360	7503.2222222222226264421	486	249	51221	16782.0845977025310276076	281638363.4444444775581359863	5719.3333333333330301684	422	249	51221	14671.1496006979832600337	215242630.6060605943202972412
5.0.11.0	win	012720	14:28:09	006	2	SRTTblock	2	SRTT	10	+	50pct	50pct	#000000	0	#ff0000	10pct	0	50pct	50pct	20	10	8000	57	1	968	6849.6999999999998181011	727	249	51221	15956.6953000926860113395	254616124.9000000357627868652	5353.8461538461542659206	454	249	51221	14108.2350469867651554523	199042296.1410256326198577881
5.0.11.0	win	012720	14:28:09	006	2	SRTTblock	2	SRTT	11	+	50pct	50pct	#000000	0	#ff0000	10pct	0	50pct	50pct	20	11	4000	57	1	2304	6436.4545454545450411388	968	249	51221	15199.7698098598630167544	231033002.2727273106575012207	5136	470	249	51221	13579.2395788004832866136	184395747.538461536169052124
5.0.11.0	win	012720	14:28:09	006	2	SRTTblock	2	SRTT	12	+	50pct	50pct	#000000	0	#ff0000	10pct	0	50pct	50pct	20	12	6000	57	1	18643	7453.6666666666669698316	1164	249	51221	14914.6454218867056624731	222446648.0606060922145843506	6036.4666666666662422358	486	249	51221	13542.0539793988536985125	183387225.9809523522853851318
5.0.11.0	win	012720	14:28:09	006	2	SRTTblock	2	SRTT	13	+	50pct	50pct	#000000	0	#ff0000	10pct	0	50pct	50pct	20	13	7000	57	1	27600	9003.3846153846152446931	1360	249	51221	15333.9675803886530047748	235130561.7564102411270141602	7384.1875	727	249	51221	14150.0188702759915031493	200223034.0291666686534881592
5.0.11.0	win	012720	14:28:09	006	2	SRTTblock	2	SRTT	14	+	50pct	50pct	#000000	0	#ff0000	10pct	0	50pct	50pct	20	14	5000	57	1	327	8383.6428571428568830015	1164	249	51221	14913.7759579583271261072	222420713.3241758346557617188	6969.0588235294117112062	486	249	51221	13807.1986770967960183043	190638735.3088235259056091309
5.0.11.0	win	012720	14:28:09	006	2	SRTTblock	2	SRTT	15	+	50pct	50pct	#000000	0	#ff0000	10pct	0	50pct	50pct	20	15	3000	57	1	288	7843.9333333333333939663	968	249	51221	14522.4934176837086852174	210902815.0666666626930236816	6597.888888888888686779	470	249	51221	13487.1976415496410481865	181904500.2222222089767456055
5.0.11.0	win	012720	14:28:09	006	2	SRTTblock	2	SRTT	16	+	50pct	50pct	#000000	0	#ff0000	10pct	0	50pct	50pct	20	16	3000	57	1	268	7370.4375	727	249	51221	14157.323202586709157913	200429800.2624999880790710449	6264.7368421052633493673	454	249	51221	13187.3996714123768470017	173907510.0935672521591186523
5.0.11.0	win	012720	14:28:09	006	2	SRTTblock	2	SRTT	17	+	50pct	50pct	#000000	0	#ff0000	10pct	0	50pct	50pct	20	17	3000	57	1	72	6941.1176470588234224124	486	72	51221	13821.5882538981059042271	191036301.8602941036224365234	5955.1000000000003637979	422	72	51221	12910.1503758211820240831	166671982.7263157963752746582
5.0.11.0	win	012720	14:28:09	006	2	SRTTblock	2	SRTT	18	+	50pct	50pct	#000000	0	#ff0000	10pct	0	50pct	50pct	20	18	6000	57	1	307	6572.5555555555556566105	470	72	51221	13499.7761690473635098897	182243956.6143791079521179199	5686.1428571428568830015	389	72	51221	12643.4758048794265050674	159857480.4285714626312255859
5.0.11.0	win	012720	14:28:09	006	2	SRTTblock	2	SRTT	19	+	50pct	50pct	#000000	0	#ff0000	10pct	0	50pct	50pct	20	19	7000	57	1	286	6241.6842105263158373418	454	72	51221	13198.4595104994132270804	174199333.4502924084663391113	5440.6818181818180164555	379	72	51221	12392.3663653087114653317	153570744.1320346295833587646
5.0.11.0	win	012720	14:28:09	006	2	SRTTblock	2	SRTT	20	+	50pct	50pct	#000000	0	#ff0000	10pct	0	50pct	50pct	20	20	6000	57	1	1298	5994.5	470	72	51221	12893.911282380327975261	166252948.1578947305679321289	5260.5652173913040314801	389	72	51221	12138.221514276474408689	147336421.5296442806720733643
