build	computer.platform	date	time	subject	group	blockcode	blocknum	trialcode	trialnum	stimulusitem1	parameters.focusx	parameters.focusy	parameters.focuscolor	stimulusitem2	parameters.targetcolor	parameters.targetsize	parameters.fixed	parameters.targetx	parameters.targety	parameters.maxtrialnumber	trial.SRTT.count	values.stiminterval	response	correct	latency	trial.SRTT.meanlatency	trial.SRTT.medianlatency	trial.SRTT.minlatency	trial.SRTT.maxlatency	trial.SRTT.sdlatency	trial.SRTT.varlatency	trial.SRTT.totalmeanlatency	trial.SRTT.totalmedianlatency	trial.SRTT.totalminlatency	trial.SRTT.totalmaxlatency	trial.SRTT.totalsdlatency	trial.SRTT.totalvarlatency
5.0.11.0	win	120619	15:03:34	003	2	practice	1	SRTT	1	+	50pct	50pct	#000000	0	#ff0000	10pct	0	50pct	50pct	20	1	5000	57	1	298	298	298	298	298	0	0	298	298	298	298	0	0
5.0.11.0	win	120619	15:03:34	003	2	practice	1	SRTT	2	+	50pct	50pct	#000000	0	#ff0000	10pct	0	50pct	50pct	20	2	6000	57	1	300	299	299	298	300	1.4142135623730951455	2	299	299	298	300	1.4142135623730951455	2
5.0.11.0	win	120619	15:03:34	003	2	practice	1	SRTT	3	+	50pct	50pct	#000000	0	#ff0000	10pct	0	50pct	50pct	20	3	3000	57	1	311	303	300	298	311	7	49	303	300	298	311	7	49
5.0.11.0	win	120619	15:03:34	003	2	SRTTblock	2	SRTT	1	+	50pct	50pct	#000000	0	#ff0000	10pct	0	50pct	50pct	20	1	6000	57	1	275	275	275	275	275	0	0	296	299	275	311	15.1217282962850063655	228.6666666666666571928
5.0.11.0	win	120619	15:03:34	003	2	SRTTblock	2	SRTT	2	+	50pct	50pct	#000000	0	#ff0000	10pct	0	50pct	50pct	20	2	2000	57	1	759	517	517	275	759	342.2396820942889803518	117128	388.6000000000000227374	300	275	759	207.4736127800352107897	43045.2999999999956344254
5.0.11.0	win	120619	15:03:34	003	2	SRTTblock	2	SRTT	3	+	50pct	50pct	#000000	0	#ff0000	10pct	0	50pct	50pct	20	3	7000	57	1	368	467.3333333333333143855	368	275	759	256.8352260367205417424	65964.3333333333284826949	385.1666666666666856145	306	275	759	185.7605088996761537601	34506.9666666666598757729
5.0.11.0	win	120619	15:03:34	003	2	SRTTblock	2	SRTT	4	+	50pct	50pct	#000000	0	#ff0000	10pct	0	50pct	50pct	20	4	7000	57	1	311	428.25	340	275	759	223.7995755134490991622	50086.25	374.5714285714285551876	311	275	759	171.8767554022912236178	29541.619047619042248698
5.0.11.0	win	120619	15:03:34	003	2	SRTTblock	2	SRTT	5	+	50pct	50pct	#000000	0	#ff0000	10pct	0	50pct	50pct	20	5	6000	57	1	378	418.1999999999999886313	368	275	759	195.1145817205879779976	38069.7000000000043655746	375	311	275	759	159.1315717978589532322	25322.8571428571412980091
5.0.11.0	win	120619	15:03:34	003	2	SRTTblock	2	SRTT	6	+	50pct	50pct	#000000	0	#ff0000	10pct	0	50pct	50pct	20	6	3000	57	1	433	420.6666666666666856145	373	275	759	174.6203500931854932787	30492.2666666666700621136	381.4444444444444570763	311	275	759	150.1042230511113189095	22531.2777777777773735579
5.0.11.0	win	120619	15:03:34	003	2	SRTTblock	2	SRTT	7	+	50pct	50pct	#000000	0	#ff0000	10pct	0	50pct	50pct	20	7	6000	57	1	335	408.4285714285714448124	368	275	759	162.6610557189982273485	26458.6190476190495246556	376.8000000000000113687	323	275	759	142.2796932492866801567	20243.5111111111109494232
5.0.11.0	win	120619	15:03:34	003	2	SRTTblock	2	SRTT	8	+	50pct	50pct	#000000	0	#ff0000	10pct	0	50pct	50pct	20	8	5000	57	1	328	398.375	352	275	759	153.2560299442919529156	23487.410714285713766003	372.3636363636363739715	328	275	759	135.7779604554971513153	18435.6545454545484972186
5.0.11.0	win	120619	15:03:34	003	2	SRTTblock	2	SRTT	9	+	50pct	50pct	#000000	0	#ff0000	10pct	0	50pct	50pct	20	9	8000	57	1	282	385.4444444444444570763	335	275	759	148.5135609221520667234	22056.2777777777773735579	364.8333333333333143855	320	275	759	132.0611658102090189004	17440.1515151515159232076
5.0.11.0	win	120619	15:03:34	003	2	SRTTblock	2	SRTT	10	+	50pct	50pct	#000000	0	#ff0000	10pct	0	50pct	50pct	20	10	2000	57	1	973	444.1999999999999886313	352	275	973	232.6536768102608903064	54127.7333333333299378864	411.61538461538464162	328	275	973	210.8034386427075048687	44438.0897435897495597601
5.0.11.0	win	120619	15:03:34	003	2	SRTTblock	2	SRTT	11	+	50pct	50pct	#000000	0	#ff0000	10pct	0	50pct	50pct	20	11	7000	57	1	461	445.7272727272727479431	368	275	973	220.7727750013986280919	48740.6181818181794369593	415.1428571428571672186	332	275	973	202.9629966816070236746	41193.9780219780222978443
5.0.11.0	win	120619	15:03:34	003	2	SRTTblock	2	SRTT	12	+	50pct	50pct	#000000	0	#ff0000	10pct	0	50pct	50pct	20	12	7000	57	1	370	439.4166666666666856145	369	275	973	211.6306638433756575068	44787.537878787872614339	412.1333333333333257542	335	275	973	195.9270515365591904811	38387.409523809517850168
5.0.11.0	win	120619	15:03:34	003	2	SRTTblock	2	SRTT	13	+	50pct	50pct	#000000	0	#ff0000	10pct	0	50pct	50pct	20	13	6000	57	1	402	436.5384615384615472067	370	275	973	202.8865098951526988458	41162.9358974358983687125	411.5	352	275	973	189.3004666308740695513	35834.6666666666642413475
5.0.11.0	win	120619	15:03:34	003	2	SRTTblock	2	SRTT	14	+	50pct	50pct	#000000	0	#ff0000	10pct	0	50pct	50pct	20	14	7000	57	1	568	445.9285714285714448124	374	275	973	198.0681562126898427323	39230.9945054945055744611	420.7058823529411597519	368	275	973	187.1783122806573658181	35035.7205882352864136919
5.0.11.0	win	120619	15:03:34	003	2	SRTTblock	2	SRTT	15	+	50pct	50pct	#000000	0	#ff0000	10pct	0	50pct	50pct	20	15	4000	57	1	400	442.8666666666666742458	378	275	973	191.2312984942828961721	36569.4095238095251261257	419.5555555555555429237	369	275	973	181.6552074097656372942	32998.6143790849673678167
5.0.11.0	win	120619	15:03:34	003	2	SRTTblock	2	SRTT	16	+	50pct	50pct	#000000	0	#ff0000	10pct	0	50pct	50pct	20	16	8000	57	1	622	454.0625	389	275	973	190.0973325255600059336	36136.995833333334303461	430.2105263157894796677	370	275	973	182.544234805755280604	33322.3976608187149395235
5.0.11.0	win	120619	15:03:34	003	2	SRTTblock	2	SRTT	17	+	50pct	50pct	#000000	0	#ff0000	10pct	0	50pct	50pct	20	17	3000	57	1	428	452.5294117647058556031	400	275	973	184.1694592104846037728	33918.389705882356793154	430.1000000000000227374	374	275	973	177.6761986844252874107	31568.8315789473708719015
5.0.11.0	win	120619	15:03:34	003	2	SRTTblock	2	SRTT	18	+	50pct	50pct	#000000	0	#ff0000	10pct	0	50pct	50pct	20	18	5000	57	1	338	446.1666666666666856145	389	275	973	180.6984000059377137859	32651.911764705873792991	425.7142857142857224062	370	275	973	174.3396520752358469508	30394.3142857142847788054
5.0.11.0	win	120619	15:03:34	003	2	SRTTblock	2	SRTT	19	+	50pct	50pct	#000000	0	#ff0000	10pct	0	50pct	50pct	20	19	7000	57	1	380	442.6842105263157804984	380	275	973	176.2621320116335823514	31068.3391812865484098438	423.6363636363636260285	374	275	973	170.4170082766292182441	29041.9567099567102559377
5.0.11.0	win	120619	15:03:34	003	2	SRTTblock	2	SRTT	20	+	50pct	50pct	#000000	0	#ff0000	10pct	0	50pct	50pct	20	20	5000	57	1	467	443.8999999999999772626	390	275	973	171.6470981863354268171	29462.72631578947766684	425.5217391304348097947	378	275	973	166.7441888220661780906	27803.6245059288557968102
