build	computer.platform	date	time	subject	group	blockcode	blocknum	trialcode	trialnum	stimulusitem1	parameters.focusx	parameters.focusy	parameters.focuscolor	stimulusitem2	parameters.targetcolor	parameters.targetsize	parameters.fixed	parameters.targetx	parameters.targety	parameters.maxtrialnumber	trial.SRTT.count	values.stiminterval	response	correct	latency	trial.SRTT.meanlatency	trial.SRTT.medianlatency	trial.SRTT.minlatency	trial.SRTT.maxlatency	trial.SRTT.sdlatency	trial.SRTT.varlatency	trial.SRTT.totalmeanlatency	trial.SRTT.totalmedianlatency	trial.SRTT.totalminlatency	trial.SRTT.totalmaxlatency	trial.SRTT.totalsdlatency	trial.SRTT.totalvarlatency
5.0.11.0	win	012420	14:32:12	005	2	practice	1	SRTT	1	+	50pct	50pct	#000000	0	#ff0000	10pct	0	50pct	50pct	20	1	3000	57	1	264	264	264	264	264	0	0	264	264	264	264	0	0
5.0.11.0	win	012420	14:32:12	005	2	practice	1	SRTT	2	+	50pct	50pct	#000000	0	#ff0000	10pct	0	50pct	50pct	20	2	2000	57	1	283	273.5	274	264	283	13.4350288425444031049	180.5	273.5	274	264	283	13.4350288425444031049	180.5
5.0.11.0	win	012420	14:32:12	005	2	practice	1	SRTT	3	+	50pct	50pct	#000000	0	#ff0000	10pct	0	50pct	50pct	20	3	2000	57	1	239	262	264	239	283	22.0680764907139099762	487	262	264	239	283	22.0680764907139099762	487
5.0.11.0	win	012420	14:32:12	005	2	SRTTblock	2	SRTT	1	+	50pct	50pct	#000000	0	#ff0000	10pct	0	50pct	50pct	20	1	5000	57	1	243	243	243	243	243	0	0	257.25	254	239	283	20.3695033485518912642	414.9166666666666856145
5.0.11.0	win	012420	14:32:12	005	2	SRTTblock	2	SRTT	2	+	50pct	50pct	#000000	0	#ff0000	10pct	0	50pct	50pct	20	2	8000	57	1	280	261.5	262	243	280	26.1629509039022600803	684.5	261.8000000000000113687	264	239	283	20.3641842458763875356	414.6999999999999886313
5.0.11.0	win	012420	14:32:12	005	2	SRTTblock	2	SRTT	3	+	50pct	50pct	#000000	0	#ff0000	10pct	0	50pct	50pct	20	3	8000	57	1	283	268.6666666666666856145	280	243	283	22.2785397486759286778	496.3333333333333143855	265.3333333333333143855	272	239	283	20.1659779496722322278	406.6666666666666856145
5.0.11.0	win	012420	14:32:12	005	2	SRTTblock	2	SRTT	4	+	50pct	50pct	#000000	0	#ff0000	10pct	0	50pct	50pct	20	4	7000	57	1	326	283	282	243	326	33.9509450040299611828	1152.6666666666667424579	274	280	239	326	29.405214956987929753	864.6666666666666287711
5.0.11.0	win	012420	14:32:12	005	2	SRTTblock	2	SRTT	5	+	50pct	50pct	#000000	0	#ff0000	10pct	0	50pct	50pct	20	5	5000	57	1	480	322.3999999999999772626	283	243	480	92.8778768060510628857	8626.2999999999992724042	299.75	282	239	480	77.7537321107022876276	6045.6428571428568830015
5.0.11.0	win	012420	14:32:12	005	2	SRTTblock	2	SRTT	6	+	50pct	50pct	#000000	0	#ff0000	10pct	0	50pct	50pct	20	6	5000	57	1	404	336	305	243	480	89.5030725729569525129	8010.8000000000001818989	311.3333333333333143855	283	239	480	80.6070716500729815834	6497.5
5.0.11.0	win	012420	14:32:12	005	2	SRTTblock	2	SRTT	7	+	50pct	50pct	#000000	0	#ff0000	10pct	0	50pct	50pct	20	7	3000	57	1	506	360.2857142857142775938	326	243	506	103.9434369993512063957	10804.2380952380935923429	330.8000000000000113687	283	239	506	97.801158820673819605	9565.066666666665696539
5.0.11.0	win	012420	14:32:12	005	2	SRTTblock	2	SRTT	8	+	50pct	50pct	#000000	0	#ff0000	10pct	0	50pct	50pct	20	8	8000	57	1	308	353.75	317	243	506	97.9923466399289821993	9602.5	328.7272727272727479431	283	239	506	93.0366496699993064112	8655.8181818181819835445
5.0.11.0	win	012420	14:32:12	005	2	SRTTblock	2	SRTT	9	+	50pct	50pct	#000000	0	#ff0000	10pct	0	50pct	50pct	20	9	8000	57	1	438	363.1111111111110858474	326	243	506	95.8689788780036451499	9190.8611111111094942316	337.8333333333333143855	296	239	506	94.148657435832276974	8863.9696969696960877627
5.0.11.0	win	012420	14:32:12	005	2	SRTTblock	2	SRTT	10	+	50pct	50pct	#000000	0	#ff0000	10pct	0	50pct	50pct	20	10	8000	57	1	307	357.5	317	243	506	92.1113456638214529448	8484.5	335.4615384615384527933	307	239	506	90.5452146578487031547	8198.4358974358983687125
5.0.11.0	win	012420	14:32:12	005	2	SRTTblock	2	SRTT	11	+	50pct	50pct	#000000	0	#ff0000	10pct	0	50pct	50pct	20	11	5000	57	1	381	359.6363636363636260285	326	243	506	87.6712868928849786698	7686.2545454545452230377	338.7142857142857224062	308	239	506	87.8402646165873477457	7715.9120879120882818825
5.0.11.0	win	012420	14:32:12	005	2	SRTTblock	2	SRTT	12	+	50pct	50pct	#000000	0	#ff0000	10pct	0	50pct	50pct	20	12	2000	57	1	508	372	354	243	508	93.9245345041335895075	8821.8181818181819835445	350	308	239	508	95.2642940155739239572	9075.285714285713766003
5.0.11.0	win	012420	14:32:12	005	2	SRTTblock	2	SRTT	13	+	50pct	50pct	#000000	0	#ff0000	10pct	0	50pct	50pct	20	13	5000	57	1	288	365.5384615384615472067	326	243	508	92.8947571041331485731	8629.4358974358965497231	346.125	308	239	508	93.3301487551941448828	8710.5166666666664241347
5.0.11.0	win	012420	14:32:12	005	2	SRTTblock	2	SRTT	14	+	50pct	50pct	#000000	0	#ff0000	10pct	0	50pct	50pct	20	14	7000	57	1	283	359.6428571428571672186	317	243	508	91.9361041851744715814	8452.2472527472546062199	342.4117647058823763473	307	239	508	91.6542816945350153901	8400.5073529411765775876
5.0.11.0	win	012420	14:32:12	005	2	SRTTblock	2	SRTT	15	+	50pct	50pct	#000000	0	#ff0000	10pct	0	50pct	50pct	20	15	2000	57	1	430	364.3333333333333143855	326	243	508	90.4351912118496557014	8178.5238095238100868301	347.2777777777777714618	308	239	508	91.282886454565641543	8332.5653594771229109028
5.0.11.0	win	012420	14:32:12	005	2	SRTTblock	2	SRTT	16	+	50pct	50pct	#000000	0	#ff0000	10pct	0	50pct	50pct	20	16	7000	57	1	356	363.8125	341	243	508	87.3935304623097692911	7637.6291666666666060337	347.736842105263178837	308	239	508	88.7335850893393001115	7873.6491228070181023213
5.0.11.0	win	012420	14:32:12	005	2	SRTTblock	2	SRTT	17	+	50pct	50pct	#000000	0	#ff0000	10pct	0	50pct	50pct	20	17	8000	57	1	324	361.4705882352941443969	326	243	508	85.1675683924482740395	7253.5147058823531551752	346.5500000000000113687	316	239	508	86.5298701088394750514	7487.4184210526318565826
5.0.11.0	win	012420	14:32:12	005	2	SRTTblock	2	SRTT	18	+	50pct	50pct	#000000	0	#ff0000	10pct	0	50pct	50pct	20	18	3000	57	1	350	360.8333333333333143855	338	243	508	82.6689001912056937726	6834.1470588235297327628	346.7142857142857224062	324	239	508	84.3422449648708720815	7113.6142857142858701991
5.0.11.0	win	012420	14:32:12	005	2	SRTTblock	2	SRTT	19	+	50pct	50pct	#000000	0	#ff0000	10pct	0	50pct	50pct	20	19	3000	57	1	326	359	326	243	508	80.7361959305325029845	6518.3333333333330301684	345.7727272727272520569	325	239	508	82.4279956014609069825	6794.3744588744593784213
5.0.11.0	win	012420	14:32:12	005	2	SRTTblock	2	SRTT	20	+	50pct	50pct	#000000	0	#ff0000	10pct	0	50pct	50pct	20	20	7000	57	1	337	357.8999999999999772626	332	243	508	78.7366697155444654754	6199.4631578947364687338	345.3913043478260647134	326	239	508	80.5536180161640658071	6488.885375494071013236
