build	computer.platform	date	time	subject	group	blockcode	blocknum	trialcode	trialnum	stimulusitem1	parameters.focusx	parameters.focusy	parameters.focuscolor	stimulusitem2	parameters.targetcolor	parameters.targetsize	parameters.fixed	parameters.targetx	parameters.targety	parameters.maxtrialnumber	trial.SRTT.count	values.stiminterval	response	correct	latency	trial.SRTT.meanlatency	trial.SRTT.medianlatency	trial.SRTT.minlatency	trial.SRTT.maxlatency	trial.SRTT.sdlatency	trial.SRTT.varlatency	trial.SRTT.totalmeanlatency	trial.SRTT.totalmedianlatency	trial.SRTT.totalminlatency	trial.SRTT.totalmaxlatency	trial.SRTT.totalsdlatency	trial.SRTT.totalvarlatency
5.0.11.0	win	120319	11:23:11	001	2	practice	1	SRTT	1	+	50pct	50pct	#000000	0	#ff0000	10pct	0	50pct	50pct	20	1	6000	57	1	356	356	356	356	356	0	0	356	356	356	356	0	0
5.0.11.0	win	120319	11:23:11	001	2	practice	1	SRTT	2	+	50pct	50pct	#000000	0	#ff0000	10pct	0	50pct	50pct	20	2	4000	57	1	356	356	356	356	356	0	0	356	356	356	356	0	0
5.0.11.0	win	120319	11:23:11	001	2	practice	1	SRTT	3	+	50pct	50pct	#000000	0	#ff0000	10pct	0	50pct	50pct	20	3	8000	57	1	341	351	356	341	356	8.6602540378443872982	75	351	356	341	356	8.6602540378443872982	75
5.0.11.0	win	120319	11:23:11	001	2	SRTTblock	2	SRTT	1	+	50pct	50pct	#000000	0	#ff0000	10pct	0	50pct	50pct	20	1	2000	57	1	375	375	375	375	375	0	0	357	356	341	375	13.9283882771841192039	194
5.0.11.0	win	120319	11:23:11	001	2	SRTTblock	2	SRTT	2	+	50pct	50pct	#000000	0	#ff0000	10pct	0	50pct	50pct	20	2	5000	57	1	351	363	363	351	375	16.9705627484771390812	288	355.8000000000000113687	356	341	375	12.3571841452654567206	152.6999999999999886313
5.0.11.0	win	120319	11:23:11	001	2	SRTTblock	2	SRTT	3	+	50pct	50pct	#000000	0	#ff0000	10pct	0	50pct	50pct	20	3	8000	57	1	303	343	351	303	375	36.6606055596467186319	1344	347	354	303	375	24.2239550858236185604	586.7999999999999545253
5.0.11.0	win	120319	11:23:11	001	2	SRTTblock	2	SRTT	4	+	50pct	50pct	#000000	0	#ff0000	10pct	0	50pct	50pct	20	4	3000	57	1	329	339.5	340	303	375	30.7408522978787956959	945	344.4285714285714448124	351	303	375	23.1362424409348363952	535.2857142857143344372
5.0.11.0	win	120319	11:23:11	001	2	SRTTblock	2	SRTT	5	+	50pct	50pct	#000000	0	#ff0000	10pct	0	50pct	50pct	20	5	5000	57	1	323	336.1999999999999886313	329	303	375	27.6260746397312111355	763.2000000000000454747	341.75	346	303	375	22.720349594895886014	516.2142857142856655628
5.0.11.0	win	120319	11:23:11	001	2	SRTTblock	2	SRTT	6	+	50pct	50pct	#000000	0	#ff0000	10pct	0	50pct	50pct	20	6	6000	57	1	309	331.6666666666666856145	326	303	375	27.08997354496062826	733.8666666666667879326	338.1111111111110858474	341	303	375	23.8926999544026266165	570.8611111111111995342
5.0.11.0	win	120319	11:23:11	001	2	SRTTblock	2	SRTT	7	+	50pct	50pct	#000000	0	#ff0000	10pct	0	50pct	50pct	20	7	8000	57	1	312	328.8571428571428327814	323	303	375	25.8226552432069595966	666.8095238095238528331	335.5	335	303	375	23.9918967801862450528	575.6111111111110858474
5.0.11.0	win	120319	11:23:11	001	2	SRTTblock	2	SRTT	8	+	50pct	50pct	#000000	0	#ff0000	10pct	0	50pct	50pct	20	8	2000	57	1	378	335	326	303	378	29.5538249881224572846	873.4285714285714448124	339.3636363636363739715	341	303	378	26.1200027843517936788	682.2545454545454504114
5.0.11.0	win	120319	11:23:11	001	2	SRTTblock	2	SRTT	9	+	50pct	50pct	#000000	0	#ff0000	10pct	0	50pct	50pct	20	9	3000	57	1	338	335.3333333333333143855	329	303	378	27.6631523872461073665	765.25	339.25	340	303	378	24.9075563561816224478	620.3863636363636260285
5.0.11.0	win	120319	11:23:11	001	2	SRTTblock	2	SRTT	10	+	50pct	50pct	#000000	0	#ff0000	10pct	0	50pct	50pct	20	10	5000	57	1	300	331.8000000000000113687	326	300	378	28.373696739527382249	805.0666666666667197205	336.2307692307692263967	338	300	378	26.2143530855199173857	687.1923076923076223466
5.0.11.0	win	120319	11:23:11	001	2	SRTTblock	2	SRTT	11	+	50pct	50pct	#000000	0	#ff0000	10pct	0	50pct	50pct	20	11	5000	57	1	343	332.8181818181818130142	329	300	378	27.1286497335130256658	735.9636363636362830221	336.7142857142857224062	340	300	378	25.2508296023001115316	637.6043956043956768553
5.0.11.0	win	120319	11:23:11	001	2	SRTTblock	2	SRTT	12	+	50pct	50pct	#000000	0	#ff0000	10pct	0	50pct	50pct	20	12	3000	57	1	352	334.4166666666666856145	334	300	378	26.4522153508869095617	699.7196969696969972574	337.7333333333333484916	341	300	378	24.6503163314001945139	607.6380952380951612213
5.0.11.0	win	120319	11:23:11	001	2	SRTTblock	2	SRTT	13	+	50pct	50pct	#000000	0	#ff0000	10pct	0	50pct	50pct	20	13	3000	57	1	280	330.2307692307692263967	329	280	378	29.4820675613551195227	869.1923076923077360334	334.125	340	280	378	27.8469028798536228919	775.4500000000000454747
5.0.11.0	win	120319	11:23:11	001	2	SRTTblock	2	SRTT	14	+	50pct	50pct	#000000	0	#ff0000	10pct	0	50pct	50pct	20	14	5000	57	1	292	327.5	326	280	378	30.1119705305177483012	906.7307692307692832401	331.6470588235293917023	338	280	378	28.8334466732443139847	831.3676470588235360992
5.0.11.0	win	120319	11:23:11	001	2	SRTTblock	2	SRTT	15	+	50pct	50pct	#000000	0	#ff0000	10pct	0	50pct	50pct	20	15	2000	57	1	424	333.9333333333333371229	329	280	424	38.2463194618900885757	1462.7809523809523852833	336.7777777777777714618	340	280	424	35.4443317555116408357	1256.3006535947711199697
5.0.11.0	win	120319	11:23:11	001	2	SRTTblock	2	SRTT	16	+	50pct	50pct	#000000	0	#ff0000	10pct	0	50pct	50pct	20	16	5000	57	1	286	330.9375	326	280	424	38.8440793429320407881	1508.8624999999999545253	334.1052631578947398339	338	280	424	36.3622128907990074254	1322.2105263157893659809
5.0.11.0	win	120319	11:23:11	001	2	SRTTblock	2	SRTT	17	+	50pct	50pct	#000000	0	#ff0000	10pct	0	50pct	50pct	20	17	2000	57	1	289	328.4705882352941443969	323	280	424	38.9617082002618673187	1518.0147058823527004279	331.8500000000000227374	334	280	424	36.8014230274062299486	1354.3447368421054761711
5.0.11.0	win	120319	11:23:11	001	2	SRTTblock	2	SRTT	18	+	50pct	50pct	#000000	0	#ff0000	10pct	0	50pct	50pct	20	18	5000	57	1	300	326.8888888888889141526	318	280	424	38.3894729579207378833	1473.7516339869277999242	330.3333333333333143855	329	280	424	36.5367395005812412023	1334.9333333333333939663
5.0.11.0	win	120319	11:23:11	001	2	SRTTblock	2	SRTT	19	+	50pct	50pct	#000000	0	#ff0000	10pct	0	50pct	50pct	20	19	2000	57	1	383	329.8421052631579186709	323	280	424	39.466248812392052514	1557.584795321637102461	332.7272727272727479431	334	280	424	37.3824275221110724488	1397.4458874458873651747
5.0.11.0	win	120319	11:23:11	001	2	SRTTblock	2	SRTT	20	+	50pct	50pct	#000000	0	#ff0000	10pct	0	50pct	50pct	20	20	8000	57	1	333	330	326	280	424	38.4201153454527641884	1476.1052631578947966773	332.7391304347826235244	333	280	424	36.5229907558915627419	1333.9288537549407465121
