build	computer.platform	date	time	subject	group	blockcode	blocknum	trialcode	trialnum	stimulusitem1	parameters.focusx	parameters.focusy	parameters.focuscolor	stimulusitem2	parameters.targetcolor	parameters.targetsize	parameters.fixed	parameters.targetx	parameters.targety	parameters.maxtrialnumber	trial.SRTT.count	values.stiminterval	response	correct	latency	trial.SRTT.meanlatency	trial.SRTT.medianlatency	trial.SRTT.minlatency	trial.SRTT.maxlatency	trial.SRTT.sdlatency	trial.SRTT.varlatency	trial.SRTT.totalmeanlatency	trial.SRTT.totalmedianlatency	trial.SRTT.totalminlatency	trial.SRTT.totalmaxlatency	trial.SRTT.totalsdlatency	trial.SRTT.totalvarlatency
5.0.11.0	win	120519	17:39:02	3687	2	practice	1	SRTT	1	+	50pct	50pct	#000000	0	#ff0000	10pct	0	50pct	50pct	20	1	5000	57	1	459	459	459	459	459	0	0	459	459	459	459	0	0
5.0.11.0	win	120519	17:39:02	3687	2	practice	1	SRTT	2	+	50pct	50pct	#000000	0	#ff0000	10pct	0	50pct	50pct	20	2	7000	57	1	351	405	405	351	459	76.3675323681471382997	5832	405	405	351	459	76.3675323681471382997	5832
5.0.11.0	win	120519	17:39:02	3687	2	practice	1	SRTT	3	+	50pct	50pct	#000000	0	#ff0000	10pct	0	50pct	50pct	20	3	2000	57	1	384	398	384	351	459	55.3443764080868447763	3063	398	384	351	459	55.3443764080868447763	3063
5.0.11.0	win	120519	17:39:02	3687	2	SRTTblock	2	SRTT	1	+	50pct	50pct	#000000	0	#ff0000	10pct	0	50pct	50pct	20	1	6000	57	1	388	388	388	388	388	0	0	395.5	386	351	459	45.4642716866772218509	2067
5.0.11.0	win	120519	17:39:02	3687	2	SRTTblock	2	SRTT	2	+	50pct	50pct	#000000	0	#ff0000	10pct	0	50pct	50pct	20	2	2000	57	1	372	380	380	372	388	11.3137084989847611638	128	390.8000000000000113687	384	351	459	40.7516870816411724832	1660.7000000000002728484
5.0.11.0	win	120519	17:39:02	3687	2	SRTTblock	2	SRTT	3	+	50pct	50pct	#000000	0	#ff0000	10pct	0	50pct	50pct	20	3	3000	57	1	348	369.3333333333333143855	372	348	388	20.132891827388665007	405.3333333333333143855	383.6666666666666856145	378	348	459	40.4211165935166434338	1633.8666666666667879326
5.0.11.0	win	120519	17:39:02	3687	2	SRTTblock	2	SRTT	4	+	50pct	50pct	#000000	0	#ff0000	10pct	0	50pct	50pct	20	4	8000	57	1	331	359.75	360	331	388	25.2504125378840775795	637.5833333333333712289	376.1428571428571672186	372	331	459	41.9262390849635337986	1757.8095238095238528331
5.0.11.0	win	120519	17:39:02	3687	2	SRTTblock	2	SRTT	5	+	50pct	50pct	#000000	0	#ff0000	10pct	0	50pct	50pct	20	5	2000	57	1	365	360.8000000000000113687	365	331	388	21.9931807613178129657	483.7000000000000454747	374.75	369	331	459	39.0155646596878824539	1522.2142857142857792496
5.0.11.0	win	120519	17:39:02	3687	2	SRTTblock	2	SRTT	6	+	50pct	50pct	#000000	0	#ff0000	10pct	0	50pct	50pct	20	6	3000	57	1	309	352.1666666666666856145	357	309	388	28.8819436095749395577	834.1666666666667424579	367.4444444444444570763	365	309	459	42.5708559671728679064	1812.2777777777778283053
5.0.11.0	win	120519	17:39:02	3687	2	SRTTblock	2	SRTT	7	+	50pct	50pct	#000000	0	#ff0000	10pct	0	50pct	50pct	20	7	4000	57	1	456	367	365	309	456	47.2793118957259537183	2235.3333333333334849158	376.3000000000000113687	369	309	459	48.9399859238049046439	2395.1222222222222626442
5.0.11.0	win	120519	17:39:02	3687	2	SRTTblock	2	SRTT	8	+	50pct	50pct	#000000	0	#ff0000	10pct	0	50pct	50pct	20	8	6000	57	1	372	367.625	369	309	456	43.8078189368062496101	1919.125	375.9090909090909349288	372	309	459	46.4466458325131270612	2157.2909090909088263288
5.0.11.0	win	120519	17:39:02	3687	2	SRTTblock	2	SRTT	9	+	50pct	50pct	#000000	0	#ff0000	10pct	0	50pct	50pct	20	9	4000	57	1	372	368.1111111111110858474	372	309	456	41.0044035575584402409	1681.361111111111313221	375.5833333333333143855	372	309	459	44.2995143280032976918	1962.4469696969695178268
5.0.11.0	win	120519	17:39:02	3687	2	SRTTblock	2	SRTT	10	+	50pct	50pct	#000000	0	#ff0000	10pct	0	50pct	50pct	20	10	5000	57	1	524	383.6999999999999886313	372	309	524	62.6472487646327422794	3924.6777777777783740021	387	372	309	524	59.1044273581373360571	3493.3333333333334849158
5.0.11.0	win	120519	17:39:02	3687	2	SRTTblock	2	SRTT	11	+	50pct	50pct	#000000	0	#ff0000	10pct	0	50pct	50pct	20	11	4000	57	1	390	384.2727272727272520569	372	309	524	59.4627461678165545322	3535.8181818181824382918	387.2142857142857224062	372	309	524	56.7913571043890641477	3225.2582417582420930557
5.0.11.0	win	120519	17:39:02	3687	2	SRTTblock	2	SRTT	12	+	50pct	50pct	#000000	0	#ff0000	10pct	0	50pct	50pct	20	12	4000	57	1	438	388.75	372	309	524	58.7786680538255978945	3454.9318181818180164555	390.6000000000000227374	372	309	524	56.2745819302868852674	3166.8285714285711947014
5.0.11.0	win	120519	17:39:02	3687	2	SRTTblock	2	SRTT	13	+	50pct	50pct	#000000	0	#ff0000	10pct	0	50pct	50pct	20	13	2000	57	1	355	386.1538461538461319833	372	309	524	57.0494612213036162984	3254.6410256410254078219	388.375	372	309	524	55.0900777515031876419	3034.9166666666665150842
5.0.11.0	win	120519	17:39:02	3687	2	SRTTblock	2	SRTT	14	+	50pct	50pct	#000000	0	#ff0000	10pct	0	50pct	50pct	20	14	4000	57	1	644	404.5714285714285551876	372	309	644	88.0521823306317230617	7753.1868131868141063023	403.4117647058823763473	372	309	644	81.786351874510074822	6689.0073529411765775876
5.0.11.0	win	120519	17:39:02	3687	2	SRTTblock	2	SRTT	15	+	50pct	50pct	#000000	0	#ff0000	10pct	0	50pct	50pct	20	15	8000	57	1	632	419.7333333333333484916	372	309	644	103.1873931022491461817	10647.6380952380950475344	416.1111111111110858474	378	309	644	95.9085893772808617541	9198.4575163398712902563
5.0.11.0	win	120519	17:39:02	3687	2	SRTTblock	2	SRTT	16	+	50pct	50pct	#000000	0	#ff0000	10pct	0	50pct	50pct	20	16	5000	57	1	470	422.875	380	309	644	100.4774435715134330849	10095.7166666666671517305	418.9473684210526585048	384	309	644	94.0227358344840524751	8840.2748538011710479623
5.0.11.0	win	120519	17:39:02	3687	2	SRTTblock	2	SRTT	17	+	50pct	50pct	#000000	0	#ff0000	10pct	0	50pct	50pct	20	17	5000	57	1	426	423.0588235294117680496	388	309	644	97.2898187043711857314	9465.3088235294126207009	419.3000000000000113687	386	309	644	91.528597774282076216	8377.4842105263142002514
5.0.11.0	win	120519	17:39:02	3687	2	SRTTblock	2	SRTT	18	+	50pct	50pct	#000000	0	#ff0000	10pct	0	50pct	50pct	20	18	7000	57	1	479	426.1666666666666856145	389	309	644	95.3015338435912866544	9082.3823529411765775876	422.1428571428571672186	388	309	644	90.1572435882362697157	8128.3285714285711947014
5.0.11.0	win	120519	17:39:02	3687	2	SRTTblock	2	SRTT	19	+	50pct	50pct	#000000	0	#ff0000	10pct	0	50pct	50pct	20	19	4000	57	1	476	428.7894736842105203323	390	309	644	93.3193911892368959116	8708.5087719298244337551	424.5909090909090650712	389	309	644	88.7305493593406708897	7873.1103896103904844495
5.0.11.0	win	120519	17:39:02	3687	2	SRTTblock	2	SRTT	20	+	50pct	50pct	#000000	0	#ff0000	10pct	0	50pct	50pct	20	20	8000	57	1	503	432.5	408	309	644	92.3337766789026801462	8525.5263157894733012654	428	390	309	644	88.2187364143550638573	7782.5454545454549588612
