build	computer.platform	date	time	subject	group	blockcode	blocknum	trialcode	trialnum	stimulusitem1	parameters.focusx	parameters.focusy	parameters.focuscolor	stimulusitem2	parameters.targetcolor	parameters.targetsize	parameters.fixed	parameters.targetx	parameters.targety	parameters.maxtrialnumber	trial.SRTT.count	values.stiminterval	response	correct	latency	trial.SRTT.meanlatency	trial.SRTT.medianlatency	trial.SRTT.minlatency	trial.SRTT.maxlatency	trial.SRTT.sdlatency	trial.SRTT.varlatency	trial.SRTT.totalmeanlatency	trial.SRTT.totalmedianlatency	trial.SRTT.totalminlatency	trial.SRTT.totalmaxlatency	trial.SRTT.totalsdlatency	trial.SRTT.totalvarlatency
5.0.11.0	win	012220	18:10:09	0004	2	practice	1	SRTT	1	+	50pct	50pct	#000000	0	#ff0000	10pct	0	50pct	50pct	20	1	4000	57	1	328	328	328	328	328	0	0	328	328	328	328	0	0
5.0.11.0	win	012220	18:10:09	0004	2	practice	1	SRTT	2	+	50pct	50pct	#000000	0	#ff0000	10pct	0	50pct	50pct	20	2	4000	57	1	329	328.5	329	328	329	0.7071067811865475727	0.5	328.5	329	328	329	0.7071067811865475727	0.5
5.0.11.0	win	012220	18:10:09	0004	2	practice	1	SRTT	3	+	50pct	50pct	#000000	0	#ff0000	10pct	0	50pct	50pct	20	3	3000	57	1	354	337	329	328	354	14.7309198626562345424	217	337	329	328	354	14.7309198626562345424	217
5.0.11.0	win	012220	18:10:09	0004	2	SRTTblock	2	SRTT	1	+	50pct	50pct	#000000	0	#ff0000	10pct	0	50pct	50pct	20	1	6000	57	1	401	401	401	401	401	0	0	353	342	328	401	34.1857670188437765546	1168.6666666666667424579
5.0.11.0	win	012220	18:10:09	0004	2	SRTTblock	2	SRTT	2	+	50pct	50pct	#000000	0	#ff0000	10pct	0	50pct	50pct	20	2	6000	57	1	831	616	616	401	831	304.0559159102154467291	92450	448.6000000000000227374	354	328	831	215.8084799075328419349	46573.300000000002910383
5.0.11.0	win	012220	18:10:09	0004	2	SRTTblock	2	SRTT	3	+	50pct	50pct	#000000	0	#ff0000	10pct	0	50pct	50pct	20	3	4000	57	1	365	532.3333333333333712289	401	365	831	259.2784860595520513016	67225.3333333333284826949	434.6666666666666856145	360	328	831	196.0190466935972608553	38423.4666666666598757729
5.0.11.0	win	012220	18:10:09	0004	2	SRTTblock	2	SRTT	4	+	50pct	50pct	#000000	0	#ff0000	10pct	0	50pct	50pct	20	4	2000	57	1	444	510.25	423	365	831	216.2581405018856912648	46767.5833333333357586525	436	365	328	831	178.9748585695767530979	32032
5.0.11.0	win	012220	18:10:09	0004	2	SRTTblock	2	SRTT	5	+	50pct	50pct	#000000	0	#ff0000	10pct	0	50pct	50pct	20	5	8000	57	1	281	464.3999999999999772626	401	281	831	213.5106554718054496789	45586.800000000002910383	416.625	360	281	831	174.5254279467608000687	30459.125
5.0.11.0	win	012220	18:10:09	0004	2	SRTTblock	2	SRTT	6	+	50pct	50pct	#000000	0	#ff0000	10pct	0	50pct	50pct	20	6	4000	57	1	348	445	383	281	831	196.7932925686238831986	38727.5999999999985448085	409	354	281	831	164.8484152183453659291	27175
5.0.11.0	win	012220	18:10:09	0004	2	SRTTblock	2	SRTT	7	+	50pct	50pct	#000000	0	#ff0000	10pct	0	50pct	50pct	20	7	4000	57	1	365	433.5714285714285551876	365	281	831	182.1737788878677122284	33187.2857142857174039818	404.6000000000000227374	360	281	831	156.0421595452829990336	24349.1555555555569299031
5.0.11.0	win	012220	18:10:09	0004	2	SRTTblock	2	SRTT	8	+	50pct	50pct	#000000	0	#ff0000	10pct	0	50pct	50pct	20	8	5000	57	1	373	426	369	281	831	170.0142851140960544853	28904.8571428571412980091	401.7272727272727479431	365	281	831	148.3408850648336283484	22005.0181818181808921508
5.0.11.0	win	012220	18:10:09	0004	2	SRTTblock	2	SRTT	9	+	50pct	50pct	#000000	0	#ff0000	10pct	0	50pct	50pct	20	9	7000	57	1	429	426.3333333333333143855	373	281	831	159.0369453932010230801	25292.75	404	365	281	831	141.6564345680966710006	20066.5454545454558683559
5.0.11.0	win	012220	18:10:09	0004	2	SRTTblock	2	SRTT	10	+	50pct	50pct	#000000	0	#ff0000	10pct	0	50pct	50pct	20	10	4000	57	1	331	416.8000000000000113687	369	281	831	152.9421095999688589018	23391.2888888888846850023	398.38461538461535838	365	281	831	137.1286126607296012025	18804.2564102564101631287
5.0.11.0	win	012220	18:10:09	0004	2	SRTTblock	2	SRTT	11	+	50pct	50pct	#000000	0	#ff0000	10pct	0	50pct	50pct	20	11	2000	57	1	428	417.8181818181818130142	373	281	831	145.1329171358573546513	21063.5636363636367605068	400.5	365	281	831	131.9864503535233382081	17420.423076923078042455
5.0.11.0	win	012220	18:10:09	0004	2	SRTTblock	2	SRTT	12	+	50pct	50pct	#000000	0	#ff0000	10pct	0	50pct	50pct	20	12	5000	57	1	322	409.8333333333333143855	369	281	831	141.116221175270538879	19913.7878787878762523178	395.2666666666666515084	365	281	831	128.7902318094187137376	16586.9238095238069945481
5.0.11.0	win	012220	18:10:09	0004	2	SRTTblock	2	SRTT	13	+	50pct	50pct	#000000	0	#ff0000	10pct	0	50pct	50pct	20	13	7000	57	1	332	403.8461538461538680167	365	281	831	136.8221754406342256516	18720.3076923076914681587	391.3125	360	281	831	125.4244626591373332758	15731.2958333333335758653
5.0.11.0	win	012220	18:10:09	0004	2	SRTTblock	2	SRTT	14	+	50pct	50pct	#000000	0	#ff0000	10pct	0	50pct	50pct	20	14	6000	57	1	349	399.9285714285714448124	365	281	831	132.2692267749696668488	17495.1483516483531275298	388.8235294117646958512	354	281	831	121.874543739719115365	14853.4044117647063103504
5.0.11.0	win	012220	18:10:09	0004	2	SRTTblock	2	SRTT	15	+	50pct	50pct	#000000	0	#ff0000	10pct	0	50pct	50pct	20	15	8000	57	1	334	395.5333333333333598603	365	281	831	128.5895278265950594232	16535.2666666666664241347	385.7777777777777714618	352	281	831	118.9397057116387799169	14146.6535947712400229648
5.0.11.0	win	012220	18:10:09	0004	2	SRTTblock	2	SRTT	16	+	50pct	50pct	#000000	0	#ff0000	10pct	0	50pct	50pct	20	16	6000	57	1	335	391.75	357	281	831	125.1476461358076477381	15661.9333333333324844716	383.1052631578947398339	349	281	831	116.1741483658822176039	13496.432748538012674544
5.0.11.0	win	012220	18:10:09	0004	2	SRTTblock	2	SRTT	17	+	50pct	50pct	#000000	0	#ff0000	10pct	0	50pct	50pct	20	17	4000	57	1	512	398.8235294117646958512	365	281	831	124.6340820633132580042	15533.654411764704491361	389.5500000000000113687	352	281	831	116.6909886928089292724	13616.7868421052626217715
5.0.11.0	win	012220	18:10:09	0004	2	SRTTblock	2	SRTT	18	+	50pct	50pct	#000000	0	#ff0000	10pct	0	50pct	50pct	20	18	4000	57	1	411	399.5	365	281	831	120.9468770114529689863	14628.1470588235297327628	390.5714285714285551876	354	281	831	113.8325838363389692631	12957.8571428571412980091
5.0.11.0	win	012220	18:10:09	0004	2	SRTTblock	2	SRTT	19	+	50pct	50pct	#000000	0	#ff0000	10pct	0	50pct	50pct	20	19	8000	57	1	313	394.9473684210526585048	365	281	831	119.2026629476085588522	14209.2748538011710479623	387.0454545454545609573	352	281	831	112.3135395614935134745	12614.3311688311678153696
5.0.11.0	win	012220	18:10:09	0004	2	SRTTblock	2	SRTT	20	+	50pct	50pct	#000000	0	#ff0000	10pct	0	50pct	50pct	20	20	7000	57	1	371	393.75	365	281	831	116.1468557700257235865	13490.0921052631583734183	386.3478260869565019675	354	281	831	109.7822674436053489444	12052.1462450592898676405
