build	computer.platform	date	time	subject	group	values.practice	blockcode	blocknum	values.blockcount	trialcode	trialnum	values.trialcount	values.congruence	values.selecttarget	values.selectflanker	response	correct	latency
5.0.11.0	win	110119	13:35:27	999	2	1	practice	2	0	targetleft_congruent	2	1	1	2	2	203	1	390
5.0.11.0	win	110119	13:35:27	999	2	1	practice	2	0	targetleft_incongruent	4	2	2	2	1	203	1	374
5.0.11.0	win	110119	13:35:27	999	2	1	practice	2	0	targetright_incongruent	6	3	2	1	2	205	1	390
5.0.11.0	win	110119	13:35:27	999	2	1	practice	2	0	targetleft_incongruent	8	4	2	2	1	203	1	374
5.0.11.0	win	110119	13:35:27	999	2	1	practice	2	0	targetright_congruent	10	5	1	1	1	205	1	358
5.0.11.0	win	110119	13:35:27	999	2	1	practice	2	0	targetright_congruent	12	6	1	1	1	205	1	422
5.0.11.0	win	110119	13:35:27	999	2	1	practice	2	0	targetright_incongruent	14	7	2	1	2	203	0	645
5.0.11.0	win	110119	13:35:27	999	2	1	practice	2	0	targetright_incongruent	17	8	2	1	2	205	1	445
5.0.11.0	win	110119	13:35:27	999	2	1	practice	2	0	targetleft_congruent	19	9	1	2	2	203	1	349
5.0.11.0	win	110119	13:35:27	999	2	0	arrowFlanker	3	1	prefatory	2	9	1	2	2	203	1	372
5.0.11.0	win	110119	13:35:27	999	2	0	arrowFlanker	3	1	prefatory	4	9	2	2	1	203	1	421
5.0.11.0	win	110119	13:35:27	999	2	0	arrowFlanker	3	1	prefatory	6	9	1	1	1	205	1	356
5.0.11.0	win	110119	13:35:27	999	2	0	arrowFlanker	3	1	prefatory	8	9	2	1	2	205	1	292
5.0.11.0	win	110119	13:35:27	999	2	0	arrowFlanker	3	1	targetleft_congruent	10	10	1	2	2	203	1	292
5.0.11.0	win	110119	13:35:27	999	2	0	arrowFlanker	3	1	targetleft_incongruent	12	11	2	2	1	203	1	501
5.0.11.0	win	110119	13:35:27	999	2	0	arrowFlanker	3	1	targetright_incongruent	14	12	2	1	2	205	1	388
5.0.11.0	win	110119	13:35:27	999	2	0	arrowFlanker	3	1	targetright_incongruent	16	13	2	1	2	205	1	324
5.0.11.0	win	110119	13:35:27	999	2	0	arrowFlanker	3	1	targetleft_incongruent	18	14	2	2	1	203	1	340
5.0.11.0	win	110119	13:35:27	999	2	0	arrowFlanker	3	1	targetright_congruent	20	15	1	1	1	205	1	709
5.0.11.0	win	110119	13:35:27	999	2	0	arrowFlanker	3	1	targetright_congruent	22	16	1	1	1	205	1	372
5.0.11.0	win	110119	13:35:27	999	2	0	arrowFlanker	3	1	targetleft_congruent	24	17	1	2	2	203	1	340
5.0.11.0	win	110119	13:35:27	999	2	0	arrowFlanker	3	1	targetleft_congruent	26	18	1	2	2	203	1	356
5.0.11.0	win	110119	13:35:27	999	2	0	arrowFlanker	3	1	targetright_incongruent	28	19	2	1	2	205	1	276
5.0.11.0	win	110119	13:35:27	999	2	0	arrowFlanker	3	1	targetright_congruent	30	20	1	1	1	205	1	389
5.0.11.0	win	110119	13:35:27	999	2	0	arrowFlanker	3	1	targetright_incongruent	32	21	2	1	2	205	1	453
5.0.11.0	win	110119	13:35:27	999	2	0	arrowFlanker	3	1	targetleft_congruent	34	22	1	2	2	203	1	356
5.0.11.0	win	110119	13:35:27	999	2	0	arrowFlanker	3	1	targetright_incongruent	36	23	2	1	2	205	1	532
5.0.11.0	win	110119	13:35:27	999	2	0	arrowFlanker	3	1	targetleft_incongruent	38	24	2	2	1	203	1	389
5.0.11.0	win	110119	13:35:27	999	2	0	arrowFlanker	3	1	targetright_incongruent	40	25	2	1	2	205	1	309
5.0.11.0	win	110119	13:35:27	999	2	0	arrowFlanker	3	1	targetright_incongruent	42	26	2	1	2	205	1	452
5.0.11.0	win	110119	13:35:27	999	2	0	arrowFlanker	3	1	targetleft_incongruent	44	27	2	2	1	203	1	324
5.0.11.0	win	110119	13:35:27	999	2	0	arrowFlanker	3	1	targetright_incongruent	46	28	2	1	2	205	1	420
5.0.11.0	win	110119	13:35:27	999	2	0	arrowFlanker	3	1	targetright_incongruent	48	29	2	1	2	205	1	356
5.0.11.0	win	110119	13:35:27	999	2	0	arrowFlanker	3	1	targetright_congruent	50	30	1	1	1	205	1	356
5.0.11.0	win	110119	13:35:27	999	2	0	arrowFlanker	3	1	targetleft_congruent	52	31	1	2	2	203	1	389
5.0.11.0	win	110119	13:35:27	999	2	0	arrowFlanker	3	1	targetright_congruent	54	32	1	1	1	205	1	356
5.0.11.0	win	110119	13:35:27	999	2	0	arrowFlanker	3	1	targetleft_congruent	56	33	1	2	2	203	1	356
5.0.11.0	win	110119	13:35:27	999	2	0	arrowFlanker	3	1	targetright_incongruent	58	34	2	1	2	205	1	292
5.0.11.0	win	110119	13:35:27	999	2	0	arrowFlanker	3	1	targetleft_congruent	60	35	1	2	2	203	1	308
5.0.11.0	win	110119	13:35:27	999	2	0	arrowFlanker	3	1	targetright_congruent	62	36	1	1	1	205	1	372
5.0.11.0	win	110119	13:35:27	999	2	0	arrowFlanker	3	1	targetleft_congruent	64	37	1	2	2	203	1	341
5.0.11.0	win	110119	13:35:27	999	2	0	arrowFlanker	3	1	targetleft_incongruent	66	38	2	2	1	205	0	308
5.0.11.0	win	110119	13:35:27	999	2	0	arrowFlanker	3	1	targetright_congruent	68	39	1	1	1	205	1	341
5.0.11.0	win	110119	13:35:27	999	2	0	arrowFlanker	3	1	targetleft_incongruent	70	40	2	2	1	203	1	437
5.0.11.0	win	110119	13:35:27	999	2	0	arrowFlanker	3	1	targetright_congruent	72	41	1	1	1	205	1	484
5.0.11.0	win	110119	13:35:27	999	2	0	arrowFlanker	3	1	targetleft_incongruent	74	42	2	2	1	203	1	308
5.0.11.0	win	110119	13:35:27	999	2	0	arrowFlanker	3	1	targetleft_incongruent	76	43	2	2	1	203	1	356
5.0.11.0	win	110119	13:35:27	999	2	0	arrowFlanker	3	1	targetright_congruent	78	44	1	1	1	205	1	532
5.0.11.0	win	110119	13:35:27	999	2	0	arrowFlanker	3	1	targetleft_incongruent	80	45	2	2	1	203	1	389
5.0.11.0	win	110119	13:35:27	999	2	0	arrowFlanker	3	1	targetleft_congruent	82	46	1	2	2	203	1	324
5.0.11.0	win	110119	13:35:27	999	2	0	arrowFlanker	3	1	targetleft_incongruent	84	47	2	2	1	203	1	389
5.0.11.0	win	110119	13:35:27	999	2	0	arrowFlanker	3	1	targetright_incongruent	86	48	2	1	2	205	1	420
5.0.11.0	win	110119	13:35:27	999	2	0	arrowFlanker	3	1	targetright_congruent	88	49	1	1	1	205	1	516
5.0.11.0	win	110119	13:35:27	999	2	0	arrowFlanker	3	1	targetright_incongruent	90	50	2	1	2	205	1	356
5.0.11.0	win	110119	13:35:27	999	2	0	arrowFlanker	3	1	targetleft_congruent	92	51	1	2	2	203	1	340
5.0.11.0	win	110119	13:35:27	999	2	0	arrowFlanker	3	1	targetleft_congruent	94	52	1	2	2	203	1	356
5.0.11.0	win	110119	13:35:27	999	2	0	arrowFlanker	3	1	targetleft_congruent	96	53	1	2	2	203	1	340
5.0.11.0	win	110119	13:35:27	999	2	0	arrowFlanker	3	1	targetleft_congruent	98	54	1	2	2	203	1	340
5.0.11.0	win	110119	13:35:27	999	2	0	arrowFlanker	3	1	targetright_incongruent	100	55	2	1	2	205	1	453
5.0.11.0	win	110119	13:35:27	999	2	0	arrowFlanker	3	1	targetright_congruent	102	56	1	1	1	205	1	404
5.0.11.0	win	110119	13:35:27	999	2	0	arrowFlanker	3	1	targetleft_congruent	104	57	1	2	2	203	1	356
5.0.11.0	win	110119	13:35:27	999	2	0	arrowFlanker	3	1	targetleft_incongruent	106	58	2	2	1	203	1	452
5.0.11.0	win	110119	13:35:27	999	2	0	arrowFlanker	3	1	targetright_incongruent	108	59	2	1	2	205	1	452
5.0.11.0	win	110119	13:35:27	999	2	0	arrowFlanker	3	1	targetright_incongruent	110	60	2	1	2	205	1	388
5.0.11.0	win	110119	13:35:27	999	2	0	arrowFlanker	3	1	targetleft_incongruent	112	61	2	2	1	203	1	452
5.0.11.0	win	110119	13:35:27	999	2	0	arrowFlanker	3	1	targetleft_incongruent	114	62	2	2	1	203	1	452
5.0.11.0	win	110119	13:35:27	999	2	0	arrowFlanker	3	1	targetleft_congruent	116	63	1	2	2	203	1	356
5.0.11.0	win	110119	13:35:27	999	2	0	arrowFlanker	3	1	targetleft_incongruent	118	64	2	2	1	203	1	404
5.0.11.0	win	110119	13:35:27	999	2	0	arrowFlanker	3	1	targetright_congruent	120	65	1	1	1	205	1	404
5.0.11.0	win	110119	13:35:27	999	2	0	arrowFlanker	3	1	targetright_congruent	122	66	1	1	1	205	1	388
5.0.11.0	win	110119	13:35:27	999	2	0	arrowFlanker	3	1	targetright_incongruent	124	67	2	1	2	205	1	453
5.0.11.0	win	110119	13:35:27	999	2	0	arrowFlanker	3	1	targetright_congruent	126	68	1	1	1	205	1	404
5.0.11.0	win	110119	13:35:27	999	2	0	arrowFlanker	3	1	targetleft_incongruent	128	69	2	2	1	203	1	436
5.0.11.0	win	110119	13:35:27	999	2	0	arrowFlanker	3	1	targetleft_incongruent	130	70	2	2	1	203	1	388
5.0.11.0	win	110119	13:35:27	999	2	0	arrowFlanker	3	1	targetright_congruent	132	71	1	1	1	205	1	404
5.0.11.0	win	110119	13:35:27	999	2	0	arrowFlanker	3	1	targetleft_incongruent	134	72	2	2	1	203	1	436
5.0.11.0	win	110119	13:35:27	999	2	0	arrowFlanker	3	1	targetleft_congruent	136	73	1	2	2	203	1	372
5.0.11.0	win	110119	13:35:27	999	2	0	arrowFlanker	3	1	targetright_congruent	138	74	1	1	1	205	1	324
