build	computer.platform	date	time	subject	group	values.practice	blockcode	blocknum	values.blockcount	trialcode	trialnum	values.trialcount	values.congruence	values.selecttarget	values.selectflanker	response	correct	latency
5.0.11.0	win	110219	15:26:58	999	2	1	practice	2	0	targetright_incongruent	2	1	2	1	2	0	0	1750
5.0.11.0	win	110219	15:26:58	999	2	1	practice	2	0	targetright_congruent	5	2	1	1	1	205	1	511
5.0.11.0	win	110219	15:26:58	999	2	1	practice	2	0	targetright_congruent	7	3	1	1	1	205	1	383
5.0.11.0	win	110219	15:26:58	999	2	1	practice	2	0	targetleft_congruent	9	4	1	2	2	203	1	431
5.0.11.0	win	110219	15:26:58	999	2	1	practice	2	0	targetleft_incongruent	11	5	2	2	1	203	1	431
5.0.11.0	win	110219	15:26:58	999	2	1	practice	2	0	targetright_incongruent	13	6	2	1	2	203	0	447
5.0.11.0	win	110219	15:26:58	999	2	1	practice	2	0	targetleft_incongruent	16	7	2	2	1	203	1	455
5.0.11.0	win	110219	15:26:58	999	2	1	practice	2	0	targetleft_congruent	18	8	1	2	2	203	1	391
5.0.11.0	win	110219	15:26:58	999	2	1	practice	2	0	targetleft_congruent	20	9	1	2	2	203	1	487
5.0.11.0	win	110219	15:26:58	999	2	0	arrowFlanker	3	1	prefatory	2	9	1	1	1	205	1	401
5.0.11.0	win	110219	15:26:58	999	2	0	arrowFlanker	3	1	prefatory	4	9	1	1	1	205	1	384
5.0.11.0	win	110219	15:26:58	999	2	0	arrowFlanker	3	1	prefatory	6	9	1	1	1	205	1	321
5.0.11.0	win	110219	15:26:58	999	2	0	arrowFlanker	3	1	prefatory	8	9	1	1	1	205	1	385
5.0.11.0	win	110219	15:26:58	999	2	0	arrowFlanker	3	1	targetright_congruent	10	10	1	1	1	205	1	353
5.0.11.0	win	110219	15:26:58	999	2	0	arrowFlanker	3	1	targetleft_incongruent	12	11	2	2	1	203	1	417
5.0.11.0	win	110219	15:26:58	999	2	0	arrowFlanker	3	1	targetleft_incongruent	14	12	2	2	1	205	0	369
5.0.11.0	win	110219	15:26:58	999	2	0	arrowFlanker	3	1	targetright_congruent	16	13	1	1	1	205	1	417
5.0.11.0	win	110219	15:26:58	999	2	0	arrowFlanker	3	1	targetright_incongruent	18	14	2	1	2	205	1	481
5.0.11.0	win	110219	15:26:58	999	2	0	arrowFlanker	3	1	targetright_congruent	20	15	1	1	1	205	1	417
5.0.11.0	win	110219	15:26:58	999	2	0	arrowFlanker	3	1	targetleft_congruent	22	16	1	2	2	203	1	337
5.0.11.0	win	110219	15:26:58	999	2	0	arrowFlanker	3	1	targetright_congruent	24	17	1	1	1	205	1	385
5.0.11.0	win	110219	15:26:58	999	2	0	arrowFlanker	3	1	targetleft_congruent	26	18	1	2	2	203	1	417
5.0.11.0	win	110219	15:26:58	999	2	0	arrowFlanker	3	1	targetleft_incongruent	28	19	2	2	1	203	1	561
5.0.11.0	win	110219	15:26:58	999	2	0	arrowFlanker	3	1	targetright_congruent	30	20	1	1	1	205	1	369
5.0.11.0	win	110219	15:26:58	999	2	0	arrowFlanker	3	1	targetleft_congruent	32	21	1	2	2	203	1	369
5.0.11.0	win	110219	15:26:58	999	2	0	arrowFlanker	3	1	targetright_incongruent	34	22	2	1	2	205	1	385
5.0.11.0	win	110219	15:26:58	999	2	0	arrowFlanker	3	1	targetright_incongruent	36	23	2	1	2	205	1	401
5.0.11.0	win	110219	15:26:58	999	2	0	arrowFlanker	3	1	targetleft_incongruent	38	24	2	2	1	203	1	416
5.0.11.0	win	110219	15:26:58	999	2	0	arrowFlanker	3	1	targetright_congruent	40	25	1	1	1	205	1	369
5.0.11.0	win	110219	15:26:58	999	2	0	arrowFlanker	3	1	targetright_incongruent	42	26	2	1	2	205	1	465
5.0.11.0	win	110219	15:26:58	999	2	0	arrowFlanker	3	1	targetleft_congruent	44	27	1	2	2	203	1	385
5.0.11.0	win	110219	15:26:58	999	2	0	arrowFlanker	3	1	targetleft_incongruent	46	28	2	2	1	203	1	449
5.0.11.0	win	110219	15:26:58	999	2	0	arrowFlanker	3	1	targetleft_congruent	48	29	1	2	2	203	1	400
5.0.11.0	win	110219	15:26:58	999	2	0	arrowFlanker	3	1	targetleft_incongruent	50	30	2	2	1	203	1	369
5.0.11.0	win	110219	15:26:58	999	2	0	arrowFlanker	3	1	targetright_congruent	52	31	1	1	1	205	1	385
5.0.11.0	win	110219	15:26:58	999	2	0	arrowFlanker	3	1	targetleft_incongruent	54	32	2	2	1	203	1	417
5.0.11.0	win	110219	15:26:58	999	2	0	arrowFlanker	3	1	targetleft_congruent	56	33	1	2	2	203	1	448
5.0.11.0	win	110219	15:26:58	999	2	0	arrowFlanker	3	1	targetleft_congruent	58	34	1	2	2	203	1	593
5.0.11.0	win	110219	15:26:58	999	2	0	arrowFlanker	3	1	targetright_congruent	60	35	1	1	1	205	1	352
5.0.11.0	win	110219	15:26:58	999	2	0	arrowFlanker	3	1	targetright_incongruent	62	36	2	1	2	205	1	353
5.0.11.0	win	110219	15:26:58	999	2	0	arrowFlanker	3	1	targetleft_incongruent	64	37	2	2	1	203	1	353
5.0.11.0	win	110219	15:26:58	999	2	0	arrowFlanker	3	1	targetright_incongruent	66	38	2	1	2	205	1	353
5.0.11.0	win	110219	15:26:58	999	2	0	arrowFlanker	3	1	targetright_incongruent	68	39	2	1	2	205	1	353
5.0.11.0	win	110219	15:26:58	999	2	0	arrowFlanker	3	1	targetright_congruent	70	40	1	1	1	205	1	369
5.0.11.0	win	110219	15:26:58	999	2	0	arrowFlanker	3	1	targetright_incongruent	72	41	2	1	2	205	1	481
5.0.11.0	win	110219	15:26:58	999	2	0	arrowFlanker	3	1	targetright_congruent	74	42	1	1	1	205	1	385
5.0.11.0	win	110219	15:26:58	999	2	0	arrowFlanker	3	1	targetright_congruent	76	43	1	1	1	205	1	273
5.0.11.0	win	110219	15:26:58	999	2	0	arrowFlanker	3	1	targetleft_congruent	78	44	1	2	2	205	0	337
5.0.11.0	win	110219	15:26:58	999	2	0	arrowFlanker	3	1	targetleft_congruent	80	45	1	2	2	203	1	417
5.0.11.0	win	110219	15:26:58	999	2	0	arrowFlanker	3	1	targetright_congruent	82	46	1	1	1	205	1	369
5.0.11.0	win	110219	15:26:58	999	2	0	arrowFlanker	3	1	targetleft_incongruent	84	47	2	2	1	203	1	401
5.0.11.0	win	110219	15:26:58	999	2	0	arrowFlanker	3	1	targetright_incongruent	86	48	2	1	2	205	1	384
5.0.11.0	win	110219	15:26:58	999	2	0	arrowFlanker	3	1	targetleft_congruent	88	49	1	2	2	203	1	369
5.0.11.0	win	110219	15:26:58	999	2	0	arrowFlanker	3	1	targetleft_congruent	90	50	1	2	2	203	1	401
5.0.11.0	win	110219	15:26:58	999	2	0	arrowFlanker	3	1	targetright_congruent	92	51	1	1	1	205	1	385
5.0.11.0	win	110219	15:26:58	999	2	0	arrowFlanker	3	1	targetleft_incongruent	94	52	2	2	1	203	1	432
5.0.11.0	win	110219	15:26:58	999	2	0	arrowFlanker	3	1	targetright_incongruent	96	53	2	1	2	205	1	369
5.0.11.0	win	110219	15:26:58	999	2	0	arrowFlanker	3	1	targetleft_incongruent	98	54	2	2	1	203	1	289
5.0.11.0	win	110219	15:26:58	999	2	0	arrowFlanker	3	1	targetright_congruent	100	55	1	1	1	205	1	353
5.0.11.0	win	110219	15:26:58	999	2	0	arrowFlanker	3	1	targetright_incongruent	102	56	2	1	2	205	1	369
5.0.11.0	win	110219	15:26:58	999	2	0	arrowFlanker	3	1	targetleft_congruent	104	57	1	2	2	203	1	544
5.0.11.0	win	110219	15:26:58	999	2	0	arrowFlanker	3	1	targetleft_congruent	106	58	1	2	2	203	1	625
5.0.11.0	win	110219	15:26:58	999	2	0	arrowFlanker	3	1	targetleft_congruent	108	59	1	2	2	203	1	513
5.0.11.0	win	110219	15:26:58	999	2	0	arrowFlanker	3	1	targetleft_incongruent	110	60	2	2	1	205	0	513
5.0.11.0	win	110219	15:26:58	999	2	0	arrowFlanker	3	1	targetright_congruent	112	61	1	1	1	205	1	1281
5.0.11.0	win	110219	15:26:58	999	2	0	arrowFlanker	3	1	targetright_incongruent	114	62	2	1	2	205	1	1216
5.0.11.0	win	110219	15:26:58	999	2	0	arrowFlanker	3	1	targetright_incongruent	116	63	2	1	2	203	0	353
5.0.11.0	win	110219	15:26:58	999	2	0	arrowFlanker	3	1	targetleft_incongruent	118	64	2	2	1	203	1	1376
5.0.11.0	win	110219	15:26:58	999	2	0	arrowFlanker	3	1	targetright_incongruent	120	65	2	1	2	205	1	1648
5.0.11.0	win	110219	15:26:58	999	2	0	arrowFlanker	3	1	targetleft_congruent	122	66	1	2	2	203	1	433
5.0.11.0	win	110219	15:26:58	999	2	0	arrowFlanker	3	1	targetleft_incongruent	124	67	2	2	1	203	1	529
5.0.11.0	win	110219	15:26:58	999	2	0	arrowFlanker	3	1	targetleft_incongruent	126	68	2	2	1	203	1	577
5.0.11.0	win	110219	15:26:58	999	2	0	arrowFlanker	3	1	targetright_incongruent	128	69	2	1	2	205	1	448
5.0.11.0	win	110219	15:26:58	999	2	0	arrowFlanker	3	1	targetleft_incongruent	130	70	2	2	1	203	1	513
5.0.11.0	win	110219	15:26:58	999	2	0	arrowFlanker	3	1	targetleft_congruent	132	71	1	2	2	203	1	656
5.0.11.0	win	110219	15:26:58	999	2	0	arrowFlanker	3	1	targetright_incongruent	134	72	2	1	2	205	1	465
5.0.11.0	win	110219	15:26:58	999	2	0	arrowFlanker	3	1	targetright_congruent	136	73	1	1	1	205	1	496
5.0.11.0	win	110219	15:26:58	999	2	0	arrowFlanker	3	1	targetright_incongruent	138	74	2	1	2	205	1	513
