build	computer.platform	date	time	subject	group	blockcode	blocknum	trialcode	trialnum	stimulusitem1	parameters.focusx	parameters.focusy	parameters.focuscolor	stimulusitem2	parameters.targetcolor	parameters.targetsize	parameters.fixed	parameters.targetx	parameters.targety	parameters.maxtrialnumber	trial.SRTT.count	values.stiminterval	response	correct	latency	trial.SRTT.meanlatency	trial.SRTT.medianlatency	trial.SRTT.minlatency	trial.SRTT.maxlatency	trial.SRTT.sdlatency	trial.SRTT.varlatency	trial.SRTT.totalmeanlatency	trial.SRTT.totalmedianlatency	trial.SRTT.totalminlatency	trial.SRTT.totalmaxlatency	trial.SRTT.totalsdlatency	trial.SRTT.totalvarlatency
5.0.11.0	win	110219	15:40:24	999	2	practice	1	SRTT	1	+	50pct	50pct	#000000	0	#ff0000	10pct	0	50pct	50pct	20	1	2000	57	1	2510	2510	2510	2510	2510	0	0	2510	2510	2510	2510	0	0
5.0.11.0	win	110219	15:40:24	999	2	practice	1	SRTT	2	+	50pct	50pct	#000000	0	#ff0000	10pct	0	50pct	50pct	20	2	3000	57	1	449	1479.5	1480	449	2510	1457.3470760254745073325	2123860.5	1479.5	1480	449	2510	1457.3470760254745073325	2123860.5
5.0.11.0	win	110219	15:40:24	999	2	practice	1	SRTT	3	+	50pct	50pct	#000000	0	#ff0000	10pct	0	50pct	50pct	20	3	2000	57	1	3421	2126.6666666666665150842	2510	449	3421	1522.6307278304000192293	2318404.3333333334885537624	2126.6666666666665150842	2510	449	3421	1522.6307278304000192293	2318404.3333333334885537624
5.0.11.0	win	110219	15:40:24	999	2	SRTTblock	2	SRTT	1	+	50pct	50pct	#000000	0	#ff0000	10pct	0	50pct	50pct	20	1	7000	57	1	566	566	566	566	566	0	0	1736.5	1538	449	3421	1467.8293497542554177926	2154523
5.0.11.0	win	110219	15:40:24	999	2	SRTTblock	2	SRTT	2	+	50pct	50pct	#000000	0	#ff0000	10pct	0	50pct	50pct	20	2	7000	57	1	341	453.5	454	341	566	159.0990257669731988699	25312.5	1457.4000000000000909495	566	341	3421	1416.1130957660125204711	2005376.2999999998137354851
5.0.11.0	win	110219	15:40:24	999	2	SRTTblock	2	SRTT	3	+	50pct	50pct	#000000	0	#ff0000	10pct	0	50pct	50pct	20	3	2000	57	1	342	416.3333333333333143855	342	341	566	129.6160998230286907074	16800.3333333333357586525	1271.5	508	341	3421	1345.9769314516499889578	1811653.8999999999068677425
5.0.11.0	win	110219	15:40:24	999	2	SRTTblock	2	SRTT	4	+	50pct	50pct	#000000	0	#ff0000	10pct	0	50pct	50pct	20	4	2000	57	1	328	394.25	342	328	566	114.6774461987476740887	13150.9166666666660603369	1136.7142857142857792496	449	328	3421	1279.4068566182943413878	1636881.90476190485060215
5.0.11.0	win	110219	15:40:24	999	2	SRTTblock	2	SRTT	5	+	50pct	50pct	#000000	0	#ff0000	10pct	0	50pct	50pct	20	5	4000	57	1	410	397.3999999999999772626	342	328	566	99.5630453531831278724	9912.7999999999992724042	1045.875	430	328	3421	1212.0461374410276675917	1469055.8392857143189758062
5.0.11.0	win	110219	15:40:24	999	2	SRTTblock	2	SRTT	6	+	50pct	50pct	#000000	0	#ff0000	10pct	0	50pct	50pct	20	6	7000	57	1	272	376.5	342	272	566	102.7185474975186707525	10551.1000000000003637979	959.8888888888889141526	410	272	3421	1162.7408830479434982408	1351966.3611111112404614687
5.0.11.0	win	110219	15:40:24	999	2	SRTTblock	2	SRTT	7	+	50pct	50pct	#000000	0	#ff0000	10pct	0	50pct	50pct	20	7	7000	57	1	475	390.5714285714285551876	342	272	566	100.8891423673481710921	10178.6190476190477056662	911.3999999999999772626	430	272	3421	1106.9144501721891629131	1225259.5999999998603016138
5.0.11.0	win	110219	15:40:24	999	2	SRTTblock	2	SRTT	8	+	50pct	50pct	#000000	0	#ff0000	10pct	0	50pct	50pct	20	8	2000	57	1	375	388.625	359	272	566	93.567298164018211537	8754.839285714286233997	862.6363636363636260285	410	272	3421	1062.492566818918703575	1128890.4545454545877873898
5.0.11.0	win	110219	15:40:24	999	2	SRTTblock	2	SRTT	9	+	50pct	50pct	#000000	0	#ff0000	10pct	0	50pct	50pct	20	9	4000	57	1	344	383.6666666666666856145	344	272	566	88.7792205417461417483	7881.75	819.4166666666666287711	393	272	3421	1024.0504655829254261334	1048679.3560606061946600676
5.0.11.0	win	110219	15:40:24	999	2	SRTTblock	2	SRTT	10	+	50pct	50pct	#000000	0	#ff0000	10pct	0	50pct	50pct	20	10	6000	57	1	345	379.8000000000000113687	345	272	566	84.5902542324534607587	7155.5111111111109494232	782.9230769230769055866	375	272	3421	989.2434366338130757867	978602.5769230768783017993
5.0.11.0	win	110219	15:40:24	999	2	SRTTblock	2	SRTT	11	+	50pct	50pct	#000000	0	#ff0000	10pct	0	50pct	50pct	20	11	4000	57	1	458	386.9090909090909349288	345	272	566	83.6414425335366189529	6995.8909090909091901267	759.7142857142856655628	393	272	3421	954.3932771517868332012	910866.527472527464851737
5.0.11.0	win	110219	15:40:24	999	2	SRTTblock	2	SRTT	12	+	50pct	50pct	#000000	0	#ff0000	10pct	0	50pct	50pct	20	12	3000	57	1	351	383.9166666666666856145	348	272	566	80.419873542589328963	6467.3560606060600548517	732.4666666666666969832	375	272	3421	925.7111449094279578276	856941.12380952388048172
5.0.11.0	win	110219	15:40:24	999	2	SRTTblock	2	SRTT	13	+	50pct	50pct	#000000	0	#ff0000	10pct	0	50pct	50pct	20	13	6000	57	1	239	372.7692307692307736033	345	239	566	86.8553911646189789053	7543.8589743589736826834	701.625	363	239	3421	902.7907011040820179915	815031.0500000000465661287
5.0.11.0	win	110219	15:40:24	999	2	SRTTblock	2	SRTT	14	+	50pct	50pct	#000000	0	#ff0000	10pct	0	50pct	50pct	20	14	6000	57	1	309	368.2142857142857224062	345	239	566	85.1705786790689245436	7254.0274725274712181999	678.5294117647058556031	351	239	3421	879.2948963265296242753	773159.5147058824077248573
5.0.11.0	win	110219	15:40:24	999	2	SRTTblock	2	SRTT	15	+	50pct	50pct	#000000	0	#ff0000	10pct	0	50pct	50pct	20	15	7000	57	1	351	367.0666666666666628771	345	239	566	82.1926888186418551641	6755.6380952380941380397	660.3333333333333712289	351	239	3421	856.5274625589346442212	733639.2941176471067592502
5.0.11.0	win	110219	15:40:24	999	2	SRTTblock	2	SRTT	16	+	50pct	50pct	#000000	0	#ff0000	10pct	0	50pct	50pct	20	16	8000	57	1	286	362	345	239	566	81.9512049941915137197	6716	640.6315789473684390032	351	239	3421	836.8133477349464328654	700256.5789473684271797538
5.0.11.0	win	110219	15:40:24	999	2	SRTTblock	2	SRTT	17	+	50pct	50pct	#000000	0	#ff0000	10pct	0	50pct	50pct	20	17	7000	57	1	394	363.8823529411764639008	345	239	566	79.7275692224317538148	6356.4852941176468448248	628.2999999999999545253	351	239	3421	816.3591895212483677824	666442.326315789483487606
5.0.11.0	win	110219	15:40:24	999	2	SRTTblock	2	SRTT	18	+	50pct	50pct	#000000	0	#ff0000	10pct	0	50pct	50pct	20	18	8000	57	1	296	360.1111111111110858474	345	239	566	78.9846514419016187958	6238.5751633986919841846	612.4761904761904816041	351	239	3421	798.9858959360684593776	638378.4619047619635239244
5.0.11.0	win	110219	15:40:24	999	2	SRTTblock	2	SRTT	19	+	50pct	50pct	#000000	0	#ff0000	10pct	0	50pct	50pct	20	19	7000	57	1	436	364.1052631578947398339	345	239	566	78.7089538439222167199	6195.0994152046787348809	604.4545454545454958861	351	239	3421	780.6376348108748288723	609395.1168831167742609978
5.0.11.0	win	110219	15:40:24	999	2	SRTTblock	2	SRTT	20	+	50pct	50pct	#000000	0	#ff0000	10pct	0	50pct	50pct	20	20	7000	57	1	329	362.3500000000000227374	345	239	566	77.0107818835504929211	5930.6605263157889567083	592.4782608695652470487	351	239	3421	764.8491752427829624139	584994.2608695653034374118
