build	computer.platform	date	time	subject	group	blockcode	blocknum	trialcode	trialnum	stimulusitem1	parameters.focusx	parameters.focusy	parameters.focuscolor	stimulusitem2	parameters.targetcolor	parameters.targetsize	parameters.fixed	parameters.targetx	parameters.targety	parameters.maxtrialnumber	trial.SRTT.count	values.stiminterval	response	correct	latency	trial.SRTT.meanlatency	trial.SRTT.medianlatency	trial.SRTT.minlatency	trial.SRTT.maxlatency	trial.SRTT.sdlatency	trial.SRTT.varlatency	trial.SRTT.totalmeanlatency	trial.SRTT.totalmedianlatency	trial.SRTT.totalminlatency	trial.SRTT.totalmaxlatency	trial.SRTT.totalsdlatency	trial.SRTT.totalvarlatency
5.0.11.0	win	110119	13:26:19	999	2	practice	1	SRTT	1	+	50pct	50pct	#000000	0	#ff0000	10pct	0	50pct	50pct	20	1	3000	57	1	324	324	324	324	324	0	0	324	324	324	324	0	0
5.0.11.0	win	110119	13:26:19	999	2	practice	1	SRTT	2	+	50pct	50pct	#000000	0	#ff0000	10pct	0	50pct	50pct	20	2	7000	57	1	334	329	329	324	334	7.0710678118654755053	50	329	329	324	334	7.0710678118654755053	50
5.0.11.0	win	110119	13:26:19	999	2	practice	1	SRTT	3	+	50pct	50pct	#000000	0	#ff0000	10pct	0	50pct	50pct	20	3	2000	57	1	382	346.6666666666666856145	334	324	382	31.0053758779559593961	961.3333333333333712289	346.6666666666666856145	334	324	382	31.0053758779559593961	961.3333333333333712289
5.0.11.0	win	110119	13:26:19	999	2	SRTTblock	2	SRTT	1	+	50pct	50pct	#000000	0	#ff0000	10pct	0	50pct	50pct	20	1	6000	57	1	422	422	422	422	422	0	0	365.5	358	324	422	45.383550617670564975	2059.6666666666665150842
5.0.11.0	win	110119	13:26:19	999	2	SRTTblock	2	SRTT	2	+	50pct	50pct	#000000	0	#ff0000	10pct	0	50pct	50pct	20	2	6000	57	1	468	445	445	422	468	32.5269119345811859034	1058	386	382	324	468	60.3821165578021137321	3646
5.0.11.0	win	110119	13:26:19	999	2	SRTTblock	2	SRTT	3	+	50pct	50pct	#000000	0	#ff0000	10pct	0	50pct	50pct	20	3	7000	57	1	216	368.6666666666666856145	422	216	468	134.1988574218623284651	18009.3333333333321206737	357.6666666666666856145	358	216	468	87.9401311499287317019	7733.4666666666653327411
5.0.11.0	win	110119	13:26:19	999	2	SRTTblock	2	SRTT	4	+	50pct	50pct	#000000	0	#ff0000	10pct	0	50pct	50pct	20	4	7000	57	1	244	337.5	333	216	468	126.0621539823378753908	15891.6666666666660603369	341.4285714285714448124	334	216	468	91.0510061135280182043	8290.2857142857155849924
5.0.11.0	win	110119	13:26:19	999	2	SRTTblock	2	SRTT	5	+	50pct	50pct	#000000	0	#ff0000	10pct	0	50pct	50pct	20	5	4000	57	1	330	336	330	216	468	109.2245393673051836458	11930	340	332	216	468	84.3936355081691829128	7122.2857142857146754977
5.0.11.0	win	110119	13:26:19	999	2	SRTTblock	2	SRTT	6	+	50pct	50pct	#000000	0	#ff0000	10pct	0	50pct	50pct	20	6	7000	57	1	275	325.8333333333333143855	303	216	468	100.8174918685575391919	10164.1666666666660603369	332.7777777777777714618	330	216	468	81.8623505919811975673	6701.4444444444452528842
5.0.11.0	win	110119	13:26:19	999	2	SRTTblock	2	SRTT	7	+	50pct	50pct	#000000	0	#ff0000	10pct	0	50pct	50pct	20	7	8000	57	1	262	316.7142857142857224062	275	216	468	95.1432503924376931081	9052.2380952380954113323	325.6999999999999886313	327	216	468	80.3603688946789844749	6457.7888888888892324758
5.0.11.0	win	110119	13:26:19	999	2	SRTTblock	2	SRTT	8	+	50pct	50pct	#000000	0	#ff0000	10pct	0	50pct	50pct	20	8	6000	57	1	315	316.5	295	216	468	88.08761871811822175	7759.4285714285715584992	324.7272727272727479431	324	216	468	76.3047716844640149247	5822.4181818181823473424
5.0.11.0	win	110119	13:26:19	999	2	SRTTblock	2	SRTT	9	+	50pct	50pct	#000000	0	#ff0000	10pct	0	50pct	50pct	20	9	5000	57	1	261	310.3333333333333143855	275	216	468	84.4496891646144547394	7131.75	319.4166666666666856145	320	216	468	75.0435732010935083736	5631.5378787878789808019
5.0.11.0	win	110119	13:26:19	999	2	SRTTblock	2	SRTT	10	+	50pct	50pct	#000000	0	#ff0000	10pct	0	50pct	50pct	20	10	8000	57	1	265	305.8000000000000113687	270	216	468	80.9002128825656683375	6544.8444444444439795916	315.2307692307692263967	315	216	468	73.4167939985507729261	5390.025641025640652515
5.0.11.0	win	110119	13:26:19	999	2	SRTTblock	2	SRTT	11	+	50pct	50pct	#000000	0	#ff0000	10pct	0	50pct	50pct	20	11	6000	57	1	445	318.4545454545454390427	275	216	468	87.4749834368245302585	7651.8727272727264789864	324.5	320	216	468	78.6019670922377713396	6178.2692307692304893862
5.0.11.0	win	110119	13:26:19	999	2	SRTTblock	2	SRTT	12	+	50pct	50pct	#000000	0	#ff0000	10pct	0	50pct	50pct	20	12	2000	57	1	506	334.0833333333333143855	295	216	506	99.4351852243764824379	9887.3560606060600548517	336.6000000000000227374	324	216	506	89.0680317830942414048	7933.1142857142858701991
5.0.11.0	win	110119	13:26:19	999	2	SRTTblock	2	SRTT	13	+	50pct	50pct	#000000	0	#ff0000	10pct	0	50pct	50pct	20	13	3000	57	1	317	332.7692307692307736033	315	216	506	95.3197722110107292792	9085.8589743589745921781	335.375	321	216	506	86.1872960476194549528	7428.25
5.0.11.0	win	110119	13:26:19	999	2	SRTTblock	2	SRTT	14	+	50pct	50pct	#000000	0	#ff0000	10pct	0	50pct	50pct	20	14	4000	57	1	319	331.7857142857142775938	316	216	506	91.6541816339495198918	8400.4890109890093299327	334.4117647058823763473	319	216	506	83.5449421146557256179	6979.7573529411765775876
5.0.11.0	win	110119	13:26:19	999	2	SRTTblock	2	SRTT	15	+	50pct	50pct	#000000	0	#ff0000	10pct	0	50pct	50pct	20	15	6000	57	1	353	333.1999999999999886313	317	216	506	88.4898702838756747724	7830.4571428571425713017	335.4444444444444570763	322	216	506	81.1688307478142689888	6588.3790849673196134972
5.0.11.0	win	110119	13:26:19	999	2	SRTTblock	2	SRTT	16	+	50pct	50pct	#000000	0	#ff0000	10pct	0	50pct	50pct	20	16	2000	57	1	352	334.375	318	216	506	85.6184364880991353175	7330.5166666666664241347	336.3157894736842195016	324	216	506	78.9733095781795952917	6236.783625730993662728
5.0.11.0	win	110119	13:26:19	999	2	SRTTblock	2	SRTT	17	+	50pct	50pct	#000000	0	#ff0000	10pct	0	50pct	50pct	20	17	7000	57	1	315	333.2352941176470721985	317	216	506	83.0327717017238313701	6894.4411764705891982885	335.25	322	216	506	77.0146090037468127321	5931.25
5.0.11.0	win	110119	13:26:19	999	2	SRTTblock	2	SRTT	18	+	50pct	50pct	#000000	0	#ff0000	10pct	0	50pct	50pct	20	18	7000	57	1	276	330.0555555555555429237	316	216	506	81.6754497077752290579	6670.8790849673205229919	332.4285714285714448124	319	216	506	76.1699228229695819437	5801.8571428571431169985
5.0.11.0	win	110119	13:26:19	999	2	SRTTblock	2	SRTT	19	+	50pct	50pct	#000000	0	#ff0000	10pct	0	50pct	50pct	20	19	7000	57	1	256	326.1578947368420813291	315	216	506	81.1721511890313962567	6588.9181286549719516188	328.9545454545454390427	318	216	506	76.0992317542895619908	5791.0930735930733135319
5.0.11.0	win	110119	13:26:19	999	2	SRTTblock	2	SRTT	20	+	50pct	50pct	#000000	0	#ff0000	10pct	0	50pct	50pct	20	20	3000	57	1	333	326.5	316	216	506	79.0219822847448369885	6244.4736842105266987346	329.1304347826086882378	319	216	506	74.3543752749604038854	5528.5731225296440243255
