build	computer.platform	date	time	subject	blockcode	blocknum	trialcode	trialnum	values.congruency	stimulusitem1	response	correct	latency
5.0.11.0	win	110219	15:37:35	999	stroop	3	redcongruent	2	1	red	79	1	1108
5.0.11.0	win	110219	15:37:35	999	stroop	3	bluecongruent	3	1	blue	81	1	1344
5.0.11.0	win	110219	15:37:35	999	stroop	3	bluecontrol	4	3	red	81	1	788
5.0.11.0	win	110219	15:37:35	999	stroop	3	redcontrol	5	3	black	79	1	638
5.0.11.0	win	110219	15:37:35	999	stroop	3	greencontrol	6	3	red	80	1	670
5.0.11.0	win	110219	15:37:35	999	stroop	3	bluecongruent	7	1	blue	81	1	957
5.0.11.0	win	110219	15:37:35	999	stroop	3	blackcontrol	8	3	blue	75	1	943
5.0.11.0	win	110219	15:37:35	999	stroop	3	greenincongruent	9	2	red	80	1	931
5.0.11.0	win	110219	15:37:35	999	stroop	3	blueincongruent	10	2	red	81	1	774
5.0.11.0	win	110219	15:37:35	999	stroop	3	blackcontrol	11	3	red	75	1	1249
5.0.11.0	win	110219	15:37:35	999	stroop	3	greenincongruent	12	2	black	80	1	2088
5.0.11.0	win	110219	15:37:35	999	stroop	3	blackcontrol	13	3	blue	81	0	862
5.0.11.0	win	110219	15:37:35	999	stroop	3	blueincongruent	14	2	black	81	1	1684
5.0.11.0	win	110219	15:37:35	999	stroop	3	greenincongruent	15	2	blue	80	1	970
5.0.11.0	win	110219	15:37:35	999	stroop	3	bluecongruent	16	1	blue	81	1	1437
5.0.11.0	win	110219	15:37:35	999	stroop	3	blackcongruent	17	1	black	75	1	844
5.0.11.0	win	110219	15:37:35	999	stroop	3	greencontrol	18	3	blue	80	1	836
5.0.11.0	win	110219	15:37:35	999	stroop	3	greencontrol	19	3	black	80	1	491
5.0.11.0	win	110219	15:37:35	999	stroop	3	bluecontrol	20	3	green	81	1	816
5.0.11.0	win	110219	15:37:35	999	stroop	3	redcontrol	21	3	green	79	1	425
5.0.11.0	win	110219	15:37:35	999	stroop	3	bluecongruent	22	1	blue	81	1	1473
5.0.11.0	win	110219	15:37:35	999	stroop	3	blackcongruent	23	1	black	75	1	719
5.0.11.0	win	110219	15:37:35	999	stroop	3	blueincongruent	24	2	green	81	1	908
5.0.11.0	win	110219	15:37:35	999	stroop	3	blackincongruent	25	2	green	75	1	833
5.0.11.0	win	110219	15:37:35	999	stroop	3	greencontrol	26	3	blue	80	1	681
5.0.11.0	win	110219	15:37:35	999	stroop	3	bluecongruent	27	1	blue	81	1	823
5.0.11.0	win	110219	15:37:35	999	stroop	3	blackcongruent	28	1	black	75	1	815
5.0.11.0	win	110219	15:37:35	999	stroop	3	redcongruent	29	1	red	79	1	584
5.0.11.0	win	110219	15:37:35	999	stroop	3	greenincongruent	30	2	blue	80	1	698
5.0.11.0	win	110219	15:37:35	999	stroop	3	blackcontrol	31	3	red	75	1	759
5.0.11.0	win	110219	15:37:35	999	stroop	3	greenincongruent	32	2	black	80	1	610
5.0.11.0	win	110219	15:37:35	999	stroop	3	redcontrol	33	3	blue	79	1	579
5.0.11.0	win	110219	15:37:35	999	stroop	3	redcontrol	34	3	black	79	1	518
5.0.11.0	win	110219	15:37:35	999	stroop	3	bluecongruent	35	1	blue	81	1	459
5.0.11.0	win	110219	15:37:35	999	stroop	3	redincongruent	36	2	black	80	0	530
5.0.11.0	win	110219	15:37:35	999	stroop	3	blackcongruent	37	1	black	75	1	918
5.0.11.0	win	110219	15:37:35	999	stroop	3	redincongruent	38	2	green	79	1	795
5.0.11.0	win	110219	15:37:35	999	stroop	3	blackincongruent	39	2	red	75	1	884
5.0.11.0	win	110219	15:37:35	999	stroop	3	redcontrol	40	3	blue	79	1	1050
5.0.11.0	win	110219	15:37:35	999	stroop	3	redcongruent	41	1	red	79	1	553
5.0.11.0	win	110219	15:37:35	999	stroop	3	bluecontrol	42	3	red	80	0	780
5.0.11.0	win	110219	15:37:35	999	stroop	3	bluecontrol	43	3	black	81	1	614
5.0.11.0	win	110219	15:37:35	999	stroop	3	redcongruent	44	1	red	79	1	758
5.0.11.0	win	110219	15:37:35	999	stroop	3	greencongruent	45	1	green	80	1	642
5.0.11.0	win	110219	15:37:35	999	stroop	3	blackcontrol	46	3	green	75	1	721
5.0.11.0	win	110219	15:37:35	999	stroop	3	redincongruent	47	2	blue	79	1	701
5.0.11.0	win	110219	15:37:35	999	stroop	3	bluecontrol	48	3	green	80	0	1082
5.0.11.0	win	110219	15:37:35	999	stroop	3	greenincongruent	49	2	red	80	1	728
5.0.11.0	win	110219	15:37:35	999	stroop	3	blackincongruent	50	2	red	75	1	788
5.0.11.0	win	110219	15:37:35	999	stroop	3	blueincongruent	51	2	black	81	1	510
5.0.11.0	win	110219	15:37:35	999	stroop	3	blueincongruent	52	2	red	81	1	434
5.0.11.0	win	110219	15:37:35	999	stroop	3	redincongruent	53	2	blue	79	1	682
5.0.11.0	win	110219	15:37:35	999	stroop	3	greencongruent	54	1	green	80	1	472
5.0.11.0	win	110219	15:37:35	999	stroop	3	greencontrol	55	3	black	80	1	461
5.0.11.0	win	110219	15:37:35	999	stroop	3	blackincongruent	56	2	blue	75	1	741
5.0.11.0	win	110219	15:37:35	999	stroop	3	greencongruent	57	1	green	80	1	817
5.0.11.0	win	110219	15:37:35	999	stroop	3	greencontrol	58	3	red	80	1	441
5.0.11.0	win	110219	15:37:35	999	stroop	3	greenincongruent	59	2	blue	80	1	417
5.0.11.0	win	110219	15:37:35	999	stroop	3	blackcongruent	60	1	black	81	0	553
5.0.11.0	win	110219	15:37:35	999	stroop	3	blackcontrol	61	3	blue	75	1	637
5.0.11.0	win	110219	15:37:35	999	stroop	3	bluecontrol	62	3	black	81	1	540
5.0.11.0	win	110219	15:37:35	999	stroop	3	bluecontrol	63	3	green	81	1	464
5.0.11.0	win	110219	15:37:35	999	stroop	3	redcontrol	64	3	green	79	1	647
5.0.11.0	win	110219	15:37:35	999	stroop	3	bluecongruent	65	1	blue	81	1	646
5.0.11.0	win	110219	15:37:35	999	stroop	3	greencontrol	66	3	blue	80	1	470
5.0.11.0	win	110219	15:37:35	999	stroop	3	redcontrol	67	3	black	79	1	620
5.0.11.0	win	110219	15:37:35	999	stroop	3	redcongruent	68	1	red	79	1	524
5.0.11.0	win	110219	15:37:35	999	stroop	3	blueincongruent	69	2	green	81	1	657
5.0.11.0	win	110219	15:37:35	999	stroop	3	redcongruent	70	1	red	79	1	624
5.0.11.0	win	110219	15:37:35	999	stroop	3	blackincongruent	71	2	green	75	1	1007
5.0.11.0	win	110219	15:37:35	999	stroop	3	blueincongruent	72	2	red	81	1	721
5.0.11.0	win	110219	15:37:35	999	stroop	3	blackincongruent	73	2	red	81	0	365
5.0.11.0	win	110219	15:37:35	999	stroop	3	redincongruent	74	2	green	79	1	728
5.0.11.0	win	110219	15:37:35	999	stroop	3	blackincongruent	75	2	blue	75	1	788
5.0.11.0	win	110219	15:37:35	999	stroop	3	greencongruent	76	1	green	80	1	542
5.0.11.0	win	110219	15:37:35	999	stroop	3	blackcongruent	77	1	black	81	0	609
5.0.11.0	win	110219	15:37:35	999	stroop	3	greencongruent	78	1	green	80	1	978
5.0.11.0	win	110219	15:37:35	999	stroop	3	redcongruent	79	1	red	79	1	613
5.0.11.0	win	110219	15:37:35	999	stroop	3	blackcontrol	80	3	red	75	1	805
5.0.11.0	win	110219	15:37:35	999	stroop	3	blackcongruent	81	1	black	75	1	671
5.0.11.0	win	110219	15:37:35	999	stroop	3	greencongruent	82	1	green	80	1	589
5.0.11.0	win	110219	15:37:35	999	stroop	3	redincongruent	83	2	black	79	1	751
5.0.11.0	win	110219	15:37:35	999	stroop	3	greencongruent	84	1	green	80	1	858
5.0.11.0	win	110219	15:37:35	999	stroop	3	redincongruent	85	2	blue	79	1	689
