build	computer.platform	date	time	subject	blockcode	blocknum	trialcode	trialnum	values.congruency	stimulusitem1	response	correct	latency
5.0.11.0	win	110119	13:46:31	999	stroop	3	greencongruent	2	1	green	3	1	969
5.0.11.0	win	110119	13:46:31	999	stroop	3	blackcontrol	3	3	green	5	1	588
5.0.11.0	win	110119	13:46:31	999	stroop	3	bluecongruent	4	1	blue	4	1	494
5.0.11.0	win	110119	13:46:31	999	stroop	3	bluecongruent	5	1	blue	4	1	371
5.0.11.0	win	110119	13:46:31	999	stroop	3	redincongruent	6	2	green	2	1	862
5.0.11.0	win	110119	13:46:31	999	stroop	3	redcontrol	7	3	black	2	1	453
5.0.11.0	win	110119	13:46:31	999	stroop	3	blackcontrol	8	3	blue	5	1	444
5.0.11.0	win	110119	13:46:31	999	stroop	3	greenincongruent	9	2	red	2	0	563
5.0.11.0	win	110119	13:46:31	999	stroop	3	greencontrol	10	3	black	3	1	614
5.0.11.0	win	110119	13:46:31	999	stroop	3	redcongruent	11	1	red	2	1	519
5.0.11.0	win	110119	13:46:31	999	stroop	3	redincongruent	12	2	blue	4	0	523
5.0.11.0	win	110119	13:46:31	999	stroop	3	redcontrol	13	3	blue	2	1	592
5.0.11.0	win	110119	13:46:31	999	stroop	3	blueincongruent	14	2	green	4	1	1217
5.0.11.0	win	110119	13:46:31	999	stroop	3	redcongruent	15	1	red	2	1	553
5.0.11.0	win	110119	13:46:31	999	stroop	3	redcongruent	16	1	red	2	1	492
5.0.11.0	win	110119	13:46:31	999	stroop	3	greencongruent	17	1	green	3	1	705
5.0.11.0	win	110119	13:46:31	999	stroop	3	bluecontrol	18	3	black	4	1	638
5.0.11.0	win	110119	13:46:31	999	stroop	3	blackcongruent	19	1	black	5	1	446
5.0.11.0	win	110119	13:46:31	999	stroop	3	blackcontrol	20	3	red	4	0	342
5.0.11.0	win	110119	13:46:31	999	stroop	3	blueincongruent	21	2	red	4	1	1057
5.0.11.0	win	110119	13:46:31	999	stroop	3	blueincongruent	22	2	red	4	1	384
5.0.11.0	win	110119	13:46:31	999	stroop	3	greenincongruent	23	2	black	3	1	762
5.0.11.0	win	110119	13:46:31	999	stroop	3	blackcongruent	24	1	black	5	1	469
5.0.11.0	win	110119	13:46:31	999	stroop	3	bluecongruent	25	1	blue	4	1	523
5.0.11.0	win	110119	13:46:31	999	stroop	3	greencongruent	26	1	green	3	1	591
5.0.11.0	win	110119	13:46:31	999	stroop	3	bluecontrol	27	3	red	4	1	512
5.0.11.0	win	110119	13:46:31	999	stroop	3	greencongruent	28	1	green	3	1	805
5.0.11.0	win	110119	13:46:31	999	stroop	3	redcontrol	29	3	green	2	1	590
5.0.11.0	win	110119	13:46:31	999	stroop	3	blackcontrol	30	3	blue	5	1	464
5.0.11.0	win	110119	13:46:31	999	stroop	3	bluecongruent	31	1	blue	4	1	599
5.0.11.0	win	110119	13:46:31	999	stroop	3	blueincongruent	32	2	black	4	1	344
5.0.11.0	win	110119	13:46:31	999	stroop	3	blueincongruent	33	2	green	4	1	371
5.0.11.0	win	110119	13:46:31	999	stroop	3	blackincongruent	34	2	blue	5	1	445
5.0.11.0	win	110119	13:46:31	999	stroop	3	greenincongruent	35	2	blue	3	1	709
5.0.11.0	win	110119	13:46:31	999	stroop	3	greenincongruent	36	2	black	3	1	417
5.0.11.0	win	110119	13:46:31	999	stroop	3	blackincongruent	37	2	red	2	0	570
5.0.11.0	win	110119	13:46:31	999	stroop	3	redincongruent	38	2	blue	4	0	685
5.0.11.0	win	110119	13:46:31	999	stroop	3	greencontrol	39	3	red	3	1	1099
5.0.11.0	win	110119	13:46:31	999	stroop	3	blackcongruent	40	1	black	5	1	472
5.0.11.0	win	110119	13:46:31	999	stroop	3	redcongruent	41	1	red	2	1	558
5.0.11.0	win	110119	13:46:31	999	stroop	3	blueincongruent	42	2	red	4	1	849
5.0.11.0	win	110119	13:46:31	999	stroop	3	greenincongruent	43	2	red	3	1	616
5.0.11.0	win	110119	13:46:31	999	stroop	3	blackcongruent	44	1	black	5	1	601
5.0.11.0	win	110119	13:46:31	999	stroop	3	redcongruent	45	1	red	2	1	522
5.0.11.0	win	110119	13:46:31	999	stroop	3	blackcongruent	46	1	black	5	1	463
5.0.11.0	win	110119	13:46:31	999	stroop	3	greenincongruent	47	2	blue	3	1	1029
5.0.11.0	win	110119	13:46:31	999	stroop	3	blackcontrol	48	3	green	5	1	566
5.0.11.0	win	110119	13:46:31	999	stroop	3	redcongruent	49	1	red	2	1	504
5.0.11.0	win	110119	13:46:31	999	stroop	3	greencontrol	50	3	blue	3	1	605
5.0.11.0	win	110119	13:46:31	999	stroop	3	bluecongruent	51	1	blue	4	1	431
5.0.11.0	win	110119	13:46:31	999	stroop	3	redcontrol	52	3	black	2	1	423
5.0.11.0	win	110119	13:46:31	999	stroop	3	blackcontrol	53	3	red	5	1	447
5.0.11.0	win	110119	13:46:31	999	stroop	3	greencongruent	54	1	green	3	1	726
5.0.11.0	win	110119	13:46:31	999	stroop	3	greencontrol	55	3	black	3	1	418
5.0.11.0	win	110119	13:46:31	999	stroop	3	redincongruent	56	2	black	2	1	523
5.0.11.0	win	110119	13:46:31	999	stroop	3	blackincongruent	57	2	green	5	1	752
5.0.11.0	win	110119	13:46:31	999	stroop	3	greencontrol	58	3	red	3	1	443
5.0.11.0	win	110119	13:46:31	999	stroop	3	blackincongruent	59	2	red	2	0	691
5.0.11.0	win	110119	13:46:31	999	stroop	3	redcongruent	60	1	red	2	1	449
5.0.11.0	win	110119	13:46:31	999	stroop	3	redcontrol	61	3	blue	2	1	568
5.0.11.0	win	110119	13:46:31	999	stroop	3	bluecontrol	62	3	green	4	1	699
5.0.11.0	win	110119	13:46:31	999	stroop	3	bluecontrol	63	3	black	4	1	376
5.0.11.0	win	110119	13:46:31	999	stroop	3	blueincongruent	64	2	green	4	1	515
5.0.11.0	win	110119	13:46:31	999	stroop	3	greencontrol	65	3	blue	3	1	455
5.0.11.0	win	110119	13:46:31	999	stroop	3	bluecongruent	66	1	blue	4	1	415
5.0.11.0	win	110119	13:46:31	999	stroop	3	blackcontrol	67	3	green	5	1	472
5.0.11.0	win	110119	13:46:31	999	stroop	3	bluecontrol	68	3	green	3	0	654
5.0.11.0	win	110119	13:46:31	999	stroop	3	redcontrol	69	3	green	2	1	829
5.0.11.0	win	110119	13:46:31	999	stroop	3	redincongruent	70	2	green	2	1	422
5.0.11.0	win	110119	13:46:31	999	stroop	3	bluecontrol	71	3	red	4	1	477
5.0.11.0	win	110119	13:46:31	999	stroop	3	greencongruent	72	1	green	3	1	676
5.0.11.0	win	110119	13:46:31	999	stroop	3	redcontrol	73	3	black	2	1	722
5.0.11.0	win	110119	13:46:31	999	stroop	3	blackincongruent	74	2	blue	5	1	671
5.0.11.0	win	110119	13:46:31	999	stroop	3	redincongruent	75	2	black	2	1	797
5.0.11.0	win	110119	13:46:31	999	stroop	3	redincongruent	76	2	green	2	1	375
5.0.11.0	win	110119	13:46:31	999	stroop	3	blackincongruent	77	2	green	5	1	497
5.0.11.0	win	110119	13:46:31	999	stroop	3	bluecongruent	78	1	blue	4	1	1046
5.0.11.0	win	110119	13:46:31	999	stroop	3	blackincongruent	79	2	red	2	0	485
5.0.11.0	win	110119	13:46:31	999	stroop	3	bluecontrol	80	3	green	3	0	748
5.0.11.0	win	110119	13:46:31	999	stroop	3	blackcongruent	81	1	black	5	1	791
5.0.11.0	win	110119	13:46:31	999	stroop	3	blackcongruent	82	1	black	5	1	336
5.0.11.0	win	110119	13:46:31	999	stroop	3	greencontrol	83	3	red	3	1	476
5.0.11.0	win	110119	13:46:31	999	stroop	3	greenincongruent	84	2	red	3	1	403
5.0.11.0	win	110119	13:46:31	999	stroop	3	greencongruent	85	1	green	3	1	412
