build	computer.platform	date	time	subject	group	values.practice	blockcode	blocknum	values.blockcount	trialcode	trialnum	values.trialcount	values.congruence	values.selecttarget	values.selectflanker	response	correct	latency
5.0.11.0	win	012720	14:06:43	006	2	1	practice	2	0	targetleft_congruent	2	1	1	2	2	203	1	592
5.0.11.0	win	012720	14:06:43	006	2	1	practice	2	0	targetleft_congruent	4	2	1	2	2	203	1	432
5.0.11.0	win	012720	14:06:43	006	2	1	practice	2	0	targetright_incongruent	6	3	2	1	2	205	1	656
5.0.11.0	win	012720	14:06:43	006	2	1	practice	2	0	targetleft_incongruent	8	4	2	2	1	203	1	400
5.0.11.0	win	012720	14:06:43	006	2	1	practice	2	0	targetright_incongruent	10	5	2	1	2	205	1	448
5.0.11.0	win	012720	14:06:43	006	2	1	practice	2	0	targetleft_congruent	12	6	1	2	2	203	1	352
5.0.11.0	win	012720	14:06:43	006	2	1	practice	2	0	targetleft_incongruent	14	7	2	2	1	203	1	368
5.0.11.0	win	012720	14:06:43	006	2	1	practice	2	0	targetright_congruent	16	8	1	1	1	205	1	368
5.0.11.0	win	012720	14:06:43	006	2	1	practice	2	0	targetright_congruent	18	9	1	1	1	205	1	400
5.0.11.0	win	012720	14:06:43	006	2	0	arrowFlanker	3	1	prefatory	2	9	2	2	1	203	1	528
5.0.11.0	win	012720	14:06:43	006	2	0	arrowFlanker	3	1	prefatory	4	9	1	1	1	205	1	320
5.0.11.0	win	012720	14:06:43	006	2	0	arrowFlanker	3	1	prefatory	6	9	2	2	1	203	1	448
5.0.11.0	win	012720	14:06:43	006	2	0	arrowFlanker	3	1	prefatory	8	9	2	1	2	203	0	368
5.0.11.0	win	012720	14:06:43	006	2	0	arrowFlanker	3	1	targetright_congruent	10	10	1	1	1	205	1	336
5.0.11.0	win	012720	14:06:43	006	2	0	arrowFlanker	3	1	targetright_congruent	12	11	1	1	1	205	1	352
5.0.11.0	win	012720	14:06:43	006	2	0	arrowFlanker	3	1	targetright_incongruent	14	12	2	1	2	205	1	496
5.0.11.0	win	012720	14:06:43	006	2	0	arrowFlanker	3	1	targetleft_incongruent	16	13	2	2	1	203	1	608
5.0.11.0	win	012720	14:06:43	006	2	0	arrowFlanker	3	1	targetright_incongruent	18	14	2	1	2	203	0	816
5.0.11.0	win	012720	14:06:43	006	2	0	arrowFlanker	3	1	targetright_incongruent	20	15	2	1	2	205	1	448
5.0.11.0	win	012720	14:06:43	006	2	0	arrowFlanker	3	1	targetleft_congruent	22	16	1	2	2	0	0	1750
5.0.11.0	win	012720	14:06:43	006	2	0	arrowFlanker	3	1	targetright_congruent	24	17	1	1	1	205	1	543
5.0.11.0	win	012720	14:06:43	006	2	0	arrowFlanker	3	1	targetleft_incongruent	26	18	2	2	1	0	0	1750
5.0.11.0	win	012720	14:06:43	006	2	0	arrowFlanker	3	1	targetright_incongruent	28	19	2	1	2	203	0	558
5.0.11.0	win	012720	14:06:43	006	2	0	arrowFlanker	3	1	targetright_congruent	30	20	1	1	1	205	1	783
5.0.11.0	win	012720	14:06:43	006	2	0	arrowFlanker	3	1	targetleft_incongruent	32	21	2	2	1	203	1	527
5.0.11.0	win	012720	14:06:43	006	2	0	arrowFlanker	3	1	targetright_congruent	34	22	1	1	1	205	1	878
5.0.11.0	win	012720	14:06:43	006	2	0	arrowFlanker	3	1	targetright_incongruent	36	23	2	1	2	0	0	1750
5.0.11.0	win	012720	14:06:43	006	2	0	arrowFlanker	3	1	targetright_congruent	38	24	1	1	1	205	1	414
5.0.11.0	win	012720	14:06:43	006	2	0	arrowFlanker	3	1	targetleft_incongruent	40	25	2	2	1	0	0	1750
5.0.11.0	win	012720	14:06:43	006	2	0	arrowFlanker	3	1	targetleft_congruent	42	26	1	2	2	0	0	1750
5.0.11.0	win	012720	14:06:43	006	2	0	arrowFlanker	3	1	targetleft_congruent	44	27	1	2	2	0	0	1750
5.0.11.0	win	012720	14:06:43	006	2	0	arrowFlanker	3	1	targetleft_congruent	46	28	1	2	2	0	0	1750
5.0.11.0	win	012720	14:06:43	006	2	0	arrowFlanker	3	1	targetright_congruent	48	29	1	1	1	0	0	1750
5.0.11.0	win	012720	14:06:43	006	2	0	arrowFlanker	3	1	targetleft_incongruent	50	30	2	2	1	0	0	1750
5.0.11.0	win	012720	14:06:43	006	2	0	arrowFlanker	3	1	targetleft_congruent	52	31	1	2	2	0	0	1750
5.0.11.0	win	012720	14:06:43	006	2	0	arrowFlanker	3	1	targetright_congruent	54	32	1	1	1	0	0	1750
5.0.11.0	win	012720	14:06:43	006	2	0	arrowFlanker	3	1	targetright_congruent	56	33	1	1	1	0	0	1750
5.0.11.0	win	012720	14:06:43	006	2	0	arrowFlanker	3	1	targetleft_congruent	58	34	1	2	2	0	0	1750
5.0.11.0	win	012720	14:06:43	006	2	0	arrowFlanker	3	1	targetright_congruent	60	35	1	1	1	0	0	1750
5.0.11.0	win	012720	14:06:43	006	2	0	arrowFlanker	3	1	targetright_incongruent	62	36	2	1	2	0	0	1750
5.0.11.0	win	012720	14:06:43	006	2	0	arrowFlanker	3	1	targetleft_incongruent	64	37	2	2	1	0	0	1750
5.0.11.0	win	012720	14:06:43	006	2	0	arrowFlanker	3	1	targetleft_congruent	66	38	1	2	2	0	0	1750
5.0.11.0	win	012720	14:06:43	006	2	0	arrowFlanker	3	1	targetleft_congruent	68	39	1	2	2	0	0	1750
5.0.11.0	win	012720	14:06:43	006	2	0	arrowFlanker	3	1	targetright_congruent	70	40	1	1	1	0	0	1750
5.0.11.0	win	012720	14:06:43	006	2	0	arrowFlanker	3	1	targetleft_congruent	72	41	1	2	2	203	1	515
5.0.11.0	win	012720	14:06:43	006	2	0	arrowFlanker	3	1	targetleft_congruent	74	42	1	2	2	0	0	1750
5.0.11.0	win	012720	14:06:43	006	2	0	arrowFlanker	3	1	targetleft_congruent	76	43	1	2	2	0	0	1750
5.0.11.0	win	012720	14:06:43	006	2	0	arrowFlanker	3	1	targetleft_incongruent	78	44	2	2	1	0	0	1750
5.0.11.0	win	012720	14:06:43	006	2	0	arrowFlanker	3	1	targetleft_congruent	80	45	1	2	2	0	0	1750
5.0.11.0	win	012720	14:06:43	006	2	0	arrowFlanker	3	1	targetright_incongruent	82	46	2	1	2	0	0	1750
5.0.11.0	win	012720	14:06:43	006	2	0	arrowFlanker	3	1	targetleft_incongruent	84	47	2	2	1	0	0	1750
5.0.11.0	win	012720	14:06:43	006	2	0	arrowFlanker	3	1	targetleft_congruent	86	48	1	2	2	0	0	1750
5.0.11.0	win	012720	14:06:43	006	2	0	arrowFlanker	3	1	targetleft_congruent	88	49	1	2	2	0	0	1750
5.0.11.0	win	012720	14:06:43	006	2	0	arrowFlanker	3	1	targetleft_incongruent	90	50	2	2	1	0	0	1750
5.0.11.0	win	012720	14:06:43	006	2	0	arrowFlanker	3	1	targetright_incongruent	92	51	2	1	2	0	0	1750
5.0.11.0	win	012720	14:06:43	006	2	0	arrowFlanker	3	1	targetright_incongruent	94	52	2	1	2	0	0	1750
5.0.11.0	win	012720	14:06:43	006	2	0	arrowFlanker	3	1	targetleft_incongruent	96	53	2	2	1	0	0	1750
5.0.11.0	win	012720	14:06:43	006	2	0	arrowFlanker	3	1	targetright_congruent	98	54	1	1	1	0	0	1750
5.0.11.0	win	012720	14:06:43	006	2	0	arrowFlanker	3	1	targetright_congruent	100	55	1	1	1	0	0	1750
5.0.11.0	win	012720	14:06:43	006	2	0	arrowFlanker	3	1	targetright_incongruent	102	56	2	1	2	0	0	1750
5.0.11.0	win	012720	14:06:43	006	2	0	arrowFlanker	3	1	targetright_congruent	104	57	1	1	1	0	0	1750
5.0.11.0	win	012720	14:06:43	006	2	0	arrowFlanker	3	1	targetright_incongruent	106	58	2	1	2	0	0	1750
5.0.11.0	win	012720	14:06:43	006	2	0	arrowFlanker	3	1	targetleft_incongruent	108	59	2	2	1	0	0	1750
5.0.11.0	win	012720	14:06:43	006	2	0	arrowFlanker	3	1	targetright_incongruent	110	60	2	1	2	0	0	1750
5.0.11.0	win	012720	14:06:43	006	2	0	arrowFlanker	3	1	targetleft_congruent	112	61	1	2	2	0	0	1750
5.0.11.0	win	012720	14:06:43	006	2	0	arrowFlanker	3	1	targetleft_incongruent	114	62	2	2	1	0	0	1750
5.0.11.0	win	012720	14:06:43	006	2	0	arrowFlanker	3	1	targetleft_incongruent	116	63	2	2	1	0	0	1750
5.0.11.0	win	012720	14:06:43	006	2	0	arrowFlanker	3	1	targetright_congruent	118	64	1	1	1	0	0	1750
5.0.11.0	win	012720	14:06:43	006	2	0	arrowFlanker	3	1	targetright_congruent	120	65	1	1	1	0	0	1750
5.0.11.0	win	012720	14:06:43	006	2	0	arrowFlanker	3	1	targetleft_congruent	122	66	1	2	2	0	0	1750
5.0.11.0	win	012720	14:06:43	006	2	0	arrowFlanker	3	1	targetright_incongruent	124	67	2	1	2	0	0	1750
5.0.11.0	win	012720	14:06:43	006	2	0	arrowFlanker	3	1	targetleft_congruent	126	68	1	2	2	203	1	466
5.0.11.0	win	012720	14:06:43	006	2	0	arrowFlanker	3	1	targetright_incongruent	128	69	2	1	2	205	1	450
5.0.11.0	win	012720	14:06:43	006	2	0	arrowFlanker	3	1	targetright_incongruent	130	70	2	1	2	205	1	402
5.0.11.0	win	012720	14:06:43	006	2	0	arrowFlanker	3	1	targetleft_incongruent	132	71	2	2	1	203	1	434
5.0.11.0	win	012720	14:06:43	006	2	0	arrowFlanker	3	1	targetright_incongruent	134	72	2	1	2	205	1	370
5.0.11.0	win	012720	14:06:43	006	2	0	arrowFlanker	3	1	targetright_incongruent	136	73	2	1	2	205	1	370
5.0.11.0	win	012720	14:06:43	006	2	0	arrowFlanker	3	1	targetleft_incongruent	138	74	2	2	1	203	1	354
