build	computer.platform	date	time	subject	group	values.practice	blockcode	blocknum	values.blockcount	trialcode	trialnum	values.trialcount	values.congruence	values.selecttarget	values.selectflanker	response	correct	latency
5.0.11.0	win	120319	11:07:05	001	2	1	practice	2	0	targetright_incongruent	2	1	2	1	2	205	1	692
5.0.11.0	win	120319	11:07:05	001	2	1	practice	2	0	targetleft_incongruent	4	2	2	2	1	203	1	484
5.0.11.0	win	120319	11:07:05	001	2	1	practice	2	0	targetleft_incongruent	6	3	2	2	1	203	1	516
5.0.11.0	win	120319	11:07:05	001	2	1	practice	2	0	targetleft_incongruent	8	4	2	2	1	203	1	468
5.0.11.0	win	120319	11:07:05	001	2	1	practice	2	0	targetright_incongruent	10	5	2	1	2	205	1	516
5.0.11.0	win	120319	11:07:05	001	2	1	practice	2	0	targetleft_congruent	12	6	1	2	2	203	1	308
5.0.11.0	win	120319	11:07:05	001	2	1	practice	2	0	targetleft_congruent	14	7	1	2	2	203	1	516
5.0.11.0	win	120319	11:07:05	001	2	1	practice	2	0	targetleft_congruent	16	8	1	2	2	203	1	612
5.0.11.0	win	120319	11:07:05	001	2	1	practice	2	0	targetright_congruent	18	9	1	1	1	205	1	468
5.0.11.0	win	120319	11:07:05	001	2	0	arrowFlanker	3	1	prefatory	2	9	2	1	2	205	1	1036
5.0.11.0	win	120319	11:07:05	001	2	0	arrowFlanker	3	1	prefatory	4	9	2	2	1	203	1	524
5.0.11.0	win	120319	11:07:05	001	2	0	arrowFlanker	3	1	prefatory	6	9	1	1	1	205	1	492
5.0.11.0	win	120319	11:07:05	001	2	0	arrowFlanker	3	1	prefatory	8	9	1	2	2	203	1	412
5.0.11.0	win	120319	11:07:05	001	2	0	arrowFlanker	3	1	targetleft_congruent	10	10	1	2	2	203	1	460
5.0.11.0	win	120319	11:07:05	001	2	0	arrowFlanker	3	1	targetleft_congruent	12	11	1	2	2	203	1	460
5.0.11.0	win	120319	11:07:05	001	2	0	arrowFlanker	3	1	targetleft_incongruent	14	12	2	2	1	203	1	444
5.0.11.0	win	120319	11:07:05	001	2	0	arrowFlanker	3	1	targetright_congruent	16	13	1	1	1	205	1	444
5.0.11.0	win	120319	11:07:05	001	2	0	arrowFlanker	3	1	targetright_incongruent	18	14	2	1	2	205	1	476
5.0.11.0	win	120319	11:07:05	001	2	0	arrowFlanker	3	1	targetright_incongruent	20	15	2	1	2	205	1	476
5.0.11.0	win	120319	11:07:05	001	2	0	arrowFlanker	3	1	targetright_congruent	22	16	1	1	1	205	1	428
5.0.11.0	win	120319	11:07:05	001	2	0	arrowFlanker	3	1	targetleft_incongruent	24	17	2	2	1	203	1	396
5.0.11.0	win	120319	11:07:05	001	2	0	arrowFlanker	3	1	targetleft_congruent	26	18	1	2	2	203	1	476
5.0.11.0	win	120319	11:07:05	001	2	0	arrowFlanker	3	1	targetleft_incongruent	28	19	2	2	1	203	1	460
5.0.11.0	win	120319	11:07:05	001	2	0	arrowFlanker	3	1	targetleft_congruent	30	20	1	2	2	203	1	428
5.0.11.0	win	120319	11:07:05	001	2	0	arrowFlanker	3	1	targetleft_incongruent	32	21	2	2	1	203	1	684
5.0.11.0	win	120319	11:07:05	001	2	0	arrowFlanker	3	1	targetleft_incongruent	34	22	2	2	1	203	1	412
5.0.11.0	win	120319	11:07:05	001	2	0	arrowFlanker	3	1	targetright_incongruent	36	23	2	1	2	205	1	460
5.0.11.0	win	120319	11:07:05	001	2	0	arrowFlanker	3	1	targetright_incongruent	38	24	2	1	2	203	0	316
5.0.11.0	win	120319	11:07:05	001	2	0	arrowFlanker	3	1	targetleft_incongruent	40	25	2	2	1	203	1	460
5.0.11.0	win	120319	11:07:05	001	2	0	arrowFlanker	3	1	targetleft_incongruent	42	26	2	2	1	203	1	460
5.0.11.0	win	120319	11:07:05	001	2	0	arrowFlanker	3	1	targetleft_congruent	44	27	1	2	2	203	1	364
5.0.11.0	win	120319	11:07:05	001	2	0	arrowFlanker	3	1	targetleft_incongruent	46	28	2	2	1	203	1	444
5.0.11.0	win	120319	11:07:05	001	2	0	arrowFlanker	3	1	targetright_congruent	48	29	1	1	1	205	1	412
5.0.11.0	win	120319	11:07:05	001	2	0	arrowFlanker	3	1	targetright_incongruent	50	30	2	1	2	205	1	444
5.0.11.0	win	120319	11:07:05	001	2	0	arrowFlanker	3	1	targetleft_incongruent	52	31	2	2	1	203	1	460
5.0.11.0	win	120319	11:07:05	001	2	0	arrowFlanker	3	1	targetleft_incongruent	54	32	2	2	1	203	1	492
5.0.11.0	win	120319	11:07:05	001	2	0	arrowFlanker	3	1	targetleft_congruent	56	33	1	2	2	203	1	444
5.0.11.0	win	120319	11:07:05	001	2	0	arrowFlanker	3	1	targetleft_incongruent	58	34	2	2	1	203	1	396
5.0.11.0	win	120319	11:07:05	001	2	0	arrowFlanker	3	1	targetleft_congruent	60	35	1	2	2	203	1	348
5.0.11.0	win	120319	11:07:05	001	2	0	arrowFlanker	3	1	targetleft_congruent	62	36	1	2	2	203	1	380
5.0.11.0	win	120319	11:07:05	001	2	0	arrowFlanker	3	1	targetright_incongruent	64	37	2	1	2	205	1	460
5.0.11.0	win	120319	11:07:05	001	2	0	arrowFlanker	3	1	targetright_incongruent	66	38	2	1	2	205	1	492
5.0.11.0	win	120319	11:07:05	001	2	0	arrowFlanker	3	1	targetleft_incongruent	68	39	2	2	1	203	1	412
5.0.11.0	win	120319	11:07:05	001	2	0	arrowFlanker	3	1	targetright_congruent	70	40	1	1	1	205	1	508
5.0.11.0	win	120319	11:07:05	001	2	0	arrowFlanker	3	1	targetright_congruent	72	41	1	1	1	205	1	396
5.0.11.0	win	120319	11:07:05	001	2	0	arrowFlanker	3	1	targetleft_congruent	74	42	1	2	2	203	1	492
5.0.11.0	win	120319	11:07:05	001	2	0	arrowFlanker	3	1	targetright_congruent	76	43	1	1	1	205	1	380
5.0.11.0	win	120319	11:07:05	001	2	0	arrowFlanker	3	1	targetright_incongruent	78	44	2	1	2	205	1	476
5.0.11.0	win	120319	11:07:05	001	2	0	arrowFlanker	3	1	targetright_congruent	80	45	1	1	1	205	1	460
5.0.11.0	win	120319	11:07:05	001	2	0	arrowFlanker	3	1	targetleft_congruent	82	46	1	2	2	203	1	412
5.0.11.0	win	120319	11:07:05	001	2	0	arrowFlanker	3	1	targetright_incongruent	84	47	2	1	2	205	1	428
5.0.11.0	win	120319	11:07:05	001	2	0	arrowFlanker	3	1	targetleft_incongruent	86	48	2	2	1	203	1	380
5.0.11.0	win	120319	11:07:05	001	2	0	arrowFlanker	3	1	targetright_incongruent	88	49	2	1	2	205	1	460
5.0.11.0	win	120319	11:07:05	001	2	0	arrowFlanker	3	1	targetright_congruent	90	50	1	1	1	205	1	508
5.0.11.0	win	120319	11:07:05	001	2	0	arrowFlanker	3	1	targetright_incongruent	92	51	2	1	2	205	1	556
5.0.11.0	win	120319	11:07:05	001	2	0	arrowFlanker	3	1	targetleft_congruent	94	52	1	2	2	203	1	412
5.0.11.0	win	120319	11:07:05	001	2	0	arrowFlanker	3	1	targetright_congruent	96	53	1	1	1	205	1	604
5.0.11.0	win	120319	11:07:05	001	2	0	arrowFlanker	3	1	targetleft_congruent	98	54	1	2	2	203	1	492
5.0.11.0	win	120319	11:07:05	001	2	0	arrowFlanker	3	1	targetright_incongruent	100	55	2	1	2	205	1	1068
5.0.11.0	win	120319	11:07:05	001	2	0	arrowFlanker	3	1	targetleft_congruent	102	56	1	2	2	203	1	556
5.0.11.0	win	120319	11:07:05	001	2	0	arrowFlanker	3	1	targetleft_incongruent	104	57	2	2	1	203	1	492
5.0.11.0	win	120319	11:07:05	001	2	0	arrowFlanker	3	1	targetright_congruent	106	58	1	1	1	205	1	460
5.0.11.0	win	120319	11:07:05	001	2	0	arrowFlanker	3	1	targetright_incongruent	108	59	2	1	2	205	1	476
5.0.11.0	win	120319	11:07:05	001	2	0	arrowFlanker	3	1	targetright_incongruent	110	60	2	1	2	205	1	508
5.0.11.0	win	120319	11:07:05	001	2	0	arrowFlanker	3	1	targetright_incongruent	112	61	2	1	2	205	1	380
5.0.11.0	win	120319	11:07:05	001	2	0	arrowFlanker	3	1	targetleft_congruent	114	62	1	2	2	203	1	412
5.0.11.0	win	120319	11:07:05	001	2	0	arrowFlanker	3	1	targetright_incongruent	116	63	2	1	2	205	1	380
5.0.11.0	win	120319	11:07:05	001	2	0	arrowFlanker	3	1	targetright_congruent	118	64	1	1	1	205	1	396
5.0.11.0	win	120319	11:07:05	001	2	0	arrowFlanker	3	1	targetright_incongruent	120	65	2	1	2	205	1	460
5.0.11.0	win	120319	11:07:05	001	2	0	arrowFlanker	3	1	targetright_congruent	122	66	1	1	1	205	1	524
5.0.11.0	win	120319	11:07:05	001	2	0	arrowFlanker	3	1	targetleft_incongruent	124	67	2	2	1	203	1	460
5.0.11.0	win	120319	11:07:05	001	2	0	arrowFlanker	3	1	targetright_congruent	126	68	1	1	1	205	1	380
5.0.11.0	win	120319	11:07:05	001	2	0	arrowFlanker	3	1	targetright_congruent	128	69	1	1	1	205	1	364
5.0.11.0	win	120319	11:07:05	001	2	0	arrowFlanker	3	1	targetleft_congruent	130	70	1	2	2	203	1	412
5.0.11.0	win	120319	11:07:05	001	2	0	arrowFlanker	3	1	targetleft_incongruent	132	71	2	2	1	203	1	476
5.0.11.0	win	120319	11:07:05	001	2	0	arrowFlanker	3	1	targetleft_congruent	134	72	1	2	2	203	1	540
5.0.11.0	win	120319	11:07:05	001	2	0	arrowFlanker	3	1	targetright_congruent	136	73	1	1	1	205	1	412
5.0.11.0	win	120319	11:07:05	001	2	0	arrowFlanker	3	1	targetright_congruent	138	74	1	1	1	205	1	348
