build	computer.platform	date	time	subject	group	values.practice	blockcode	blocknum	values.blockcount	trialcode	trialnum	values.trialcount	values.congruence	values.selecttarget	values.selectflanker	response	correct	latency
5.0.11.0	win	012220	17:41:18	0004	2	1	practice	2	0	targetright_congruent	2	1	1	1	1	205	1	723
5.0.11.0	win	012220	17:41:18	0004	2	1	practice	2	0	targetleft_congruent	4	2	1	2	2	203	1	627
5.0.11.0	win	012220	17:41:18	0004	2	1	practice	2	0	targetright_congruent	6	3	1	1	1	205	1	515
5.0.11.0	win	012220	17:41:18	0004	2	1	practice	2	0	targetleft_incongruent	8	4	2	2	1	203	1	643
5.0.11.0	win	012220	17:41:18	0004	2	1	practice	2	0	targetright_incongruent	10	5	2	1	2	205	1	547
5.0.11.0	win	012220	17:41:18	0004	2	1	practice	2	0	targetright_incongruent	12	6	2	1	2	205	1	659
5.0.11.0	win	012220	17:41:18	0004	2	1	practice	2	0	targetleft_congruent	14	7	1	2	2	203	1	467
5.0.11.0	win	012220	17:41:18	0004	2	1	practice	2	0	targetright_incongruent	16	8	2	1	2	205	1	467
5.0.11.0	win	012220	17:41:18	0004	2	1	practice	2	0	targetleft_incongruent	18	9	2	2	1	203	1	515
5.0.11.0	win	012220	17:41:18	0004	2	0	arrowFlanker	3	1	prefatory	2	9	2	1	2	205	1	1230
5.0.11.0	win	012220	17:41:18	0004	2	0	arrowFlanker	3	1	prefatory	4	9	1	2	2	203	1	574
5.0.11.0	win	012220	17:41:18	0004	2	0	arrowFlanker	3	1	prefatory	6	9	1	1	1	205	1	462
5.0.11.0	win	012220	17:41:18	0004	2	0	arrowFlanker	3	1	prefatory	8	9	1	2	2	203	1	494
5.0.11.0	win	012220	17:41:18	0004	2	0	arrowFlanker	3	1	targetleft_incongruent	10	10	2	2	1	203	1	478
5.0.11.0	win	012220	17:41:18	0004	2	0	arrowFlanker	3	1	targetright_incongruent	12	11	2	1	2	205	1	462
5.0.11.0	win	012220	17:41:18	0004	2	0	arrowFlanker	3	1	targetleft_congruent	14	12	1	2	2	203	1	430
5.0.11.0	win	012220	17:41:18	0004	2	0	arrowFlanker	3	1	targetleft_incongruent	16	13	2	2	1	203	1	430
5.0.11.0	win	012220	17:41:18	0004	2	0	arrowFlanker	3	1	targetright_congruent	18	14	1	1	1	205	1	414
5.0.11.0	win	012220	17:41:18	0004	2	0	arrowFlanker	3	1	targetleft_congruent	20	15	1	2	2	203	1	478
5.0.11.0	win	012220	17:41:18	0004	2	0	arrowFlanker	3	1	targetleft_incongruent	22	16	2	2	1	203	1	542
5.0.11.0	win	012220	17:41:18	0004	2	0	arrowFlanker	3	1	targetleft_incongruent	24	17	2	2	1	203	1	1006
5.0.11.0	win	012220	17:41:18	0004	2	0	arrowFlanker	3	1	targetright_congruent	26	18	1	1	1	205	1	382
5.0.11.0	win	012220	17:41:18	0004	2	0	arrowFlanker	3	1	targetright_congruent	28	19	1	1	1	205	1	398
5.0.11.0	win	012220	17:41:18	0004	2	0	arrowFlanker	3	1	targetleft_incongruent	30	20	2	2	1	203	1	398
5.0.11.0	win	012220	17:41:18	0004	2	0	arrowFlanker	3	1	targetleft_congruent	32	21	1	2	2	203	1	654
5.0.11.0	win	012220	17:41:18	0004	2	0	arrowFlanker	3	1	targetleft_incongruent	34	22	2	2	1	203	1	638
5.0.11.0	win	012220	17:41:18	0004	2	0	arrowFlanker	3	1	targetright_congruent	36	23	1	1	1	205	1	414
5.0.11.0	win	012220	17:41:18	0004	2	0	arrowFlanker	3	1	targetleft_congruent	38	24	1	2	2	203	1	446
5.0.11.0	win	012220	17:41:18	0004	2	0	arrowFlanker	3	1	targetright_incongruent	40	25	2	1	2	205	1	494
5.0.11.0	win	012220	17:41:18	0004	2	0	arrowFlanker	3	1	targetleft_congruent	42	26	1	2	2	0	0	1750
5.0.11.0	win	012220	17:41:18	0004	2	0	arrowFlanker	3	1	targetright_incongruent	44	27	2	1	2	0	0	1750
5.0.11.0	win	012220	17:41:18	0004	2	0	arrowFlanker	3	1	targetright_incongruent	46	28	2	1	2	0	0	1750
5.0.11.0	win	012220	17:41:18	0004	2	0	arrowFlanker	3	1	targetright_congruent	48	29	1	1	1	0	0	1750
5.0.11.0	win	012220	17:41:18	0004	2	0	arrowFlanker	3	1	targetright_congruent	50	30	1	1	1	0	0	1750
5.0.11.0	win	012220	17:41:18	0004	2	0	arrowFlanker	3	1	targetleft_congruent	52	31	1	2	2	0	0	1750
5.0.11.0	win	012220	17:41:18	0004	2	0	arrowFlanker	3	1	targetleft_congruent	54	32	1	2	2	0	0	1750
5.0.11.0	win	012220	17:41:18	0004	2	0	arrowFlanker	3	1	targetright_incongruent	56	33	2	1	2	0	0	1750
5.0.11.0	win	012220	17:41:18	0004	2	0	arrowFlanker	3	1	targetright_incongruent	58	34	2	1	2	205	1	569
5.0.11.0	win	012220	17:41:18	0004	2	0	arrowFlanker	3	1	targetright_incongruent	60	35	2	1	2	205	1	361
5.0.11.0	win	012220	17:41:18	0004	2	0	arrowFlanker	3	1	targetright_congruent	62	36	1	1	1	205	1	376
5.0.11.0	win	012220	17:41:18	0004	2	0	arrowFlanker	3	1	targetleft_congruent	64	37	1	2	2	203	1	425
5.0.11.0	win	012220	17:41:18	0004	2	0	arrowFlanker	3	1	targetleft_incongruent	66	38	2	2	1	205	0	537
5.0.11.0	win	012220	17:41:18	0004	2	0	arrowFlanker	3	1	targetright_congruent	68	39	1	1	1	205	1	345
5.0.11.0	win	012220	17:41:18	0004	2	0	arrowFlanker	3	1	targetright_incongruent	70	40	2	1	2	0	0	1750
5.0.11.0	win	012220	17:41:18	0004	2	0	arrowFlanker	3	1	targetleft_incongruent	72	41	2	2	1	0	0	1750
5.0.11.0	win	012220	17:41:18	0004	2	0	arrowFlanker	3	1	targetright_incongruent	74	42	2	1	2	0	0	1750
5.0.11.0	win	012220	17:41:18	0004	2	0	arrowFlanker	3	1	targetright_incongruent	76	43	2	1	2	0	0	1750
5.0.11.0	win	012220	17:41:18	0004	2	0	arrowFlanker	3	1	targetright_congruent	78	44	1	1	1	205	1	662
5.0.11.0	win	012220	17:41:18	0004	2	0	arrowFlanker	3	1	targetright_congruent	80	45	1	1	1	205	1	358
5.0.11.0	win	012220	17:41:18	0004	2	0	arrowFlanker	3	1	targetright_incongruent	82	46	2	1	2	203	0	1302
5.0.11.0	win	012220	17:41:18	0004	2	0	arrowFlanker	3	1	targetright_incongruent	84	47	2	1	2	0	0	1750
5.0.11.0	win	012220	17:41:18	0004	2	0	arrowFlanker	3	1	targetleft_congruent	86	48	1	2	2	205	0	1574
5.0.11.0	win	012220	17:41:18	0004	2	0	arrowFlanker	3	1	targetleft_incongruent	88	49	2	2	1	205	0	790
5.0.11.0	win	012220	17:41:18	0004	2	0	arrowFlanker	3	1	targetleft_incongruent	90	50	2	2	1	203	1	693
5.0.11.0	win	012220	17:41:18	0004	2	0	arrowFlanker	3	1	targetleft_incongruent	92	51	2	2	1	0	0	1750
5.0.11.0	win	012220	17:41:18	0004	2	0	arrowFlanker	3	1	targetright_congruent	94	52	1	1	1	0	0	1750
5.0.11.0	win	012220	17:41:18	0004	2	0	arrowFlanker	3	1	targetright_incongruent	96	53	2	1	2	203	0	580
5.0.11.0	win	012220	17:41:18	0004	2	0	arrowFlanker	3	1	targetleft_congruent	98	54	1	2	2	0	0	1750
5.0.11.0	win	012220	17:41:18	0004	2	0	arrowFlanker	3	1	targetright_congruent	100	55	1	1	1	0	0	1750
5.0.11.0	win	012220	17:41:18	0004	2	0	arrowFlanker	3	1	targetright_incongruent	102	56	2	1	2	0	0	1750
5.0.11.0	win	012220	17:41:18	0004	2	0	arrowFlanker	3	1	targetleft_congruent	104	57	1	2	2	205	0	1330
5.0.11.0	win	012220	17:41:18	0004	2	0	arrowFlanker	3	1	targetleft_congruent	106	58	1	2	2	203	1	610
5.0.11.0	win	012220	17:41:18	0004	2	0	arrowFlanker	3	1	targetleft_congruent	108	59	1	2	2	205	0	354
5.0.11.0	win	012220	17:41:18	0004	2	0	arrowFlanker	3	1	targetright_congruent	110	60	1	1	1	0	0	1750
5.0.11.0	win	012220	17:41:18	0004	2	0	arrowFlanker	3	1	targetleft_incongruent	112	61	2	2	1	203	1	961
5.0.11.0	win	012220	17:41:18	0004	2	0	arrowFlanker	3	1	targetright_congruent	114	62	1	1	1	205	1	369
5.0.11.0	win	012220	17:41:18	0004	2	0	arrowFlanker	3	1	targetleft_incongruent	116	63	2	2	1	205	0	17
5.0.11.0	win	012220	17:41:18	0004	2	0	arrowFlanker	3	1	targetleft_incongruent	118	64	2	2	1	205	0	913
5.0.11.0	win	012220	17:41:18	0004	2	0	arrowFlanker	3	1	targetright_incongruent	120	65	2	1	2	203	0	433
5.0.11.0	win	012220	17:41:18	0004	2	0	arrowFlanker	3	1	targetright_congruent	122	66	1	1	1	0	0	1750
5.0.11.0	win	012220	17:41:18	0004	2	0	arrowFlanker	3	1	targetleft_incongruent	124	67	2	2	1	205	0	400
5.0.11.0	win	012220	17:41:18	0004	2	0	arrowFlanker	3	1	targetright_incongruent	126	68	2	1	2	0	0	1750
5.0.11.0	win	012220	17:41:18	0004	2	0	arrowFlanker	3	1	targetleft_incongruent	128	69	2	2	1	0	0	1750
5.0.11.0	win	012220	17:41:18	0004	2	0	arrowFlanker	3	1	targetright_incongruent	130	70	2	1	2	203	0	431
5.0.11.0	win	012220	17:41:18	0004	2	0	arrowFlanker	3	1	targetleft_congruent	132	71	1	2	2	203	1	463
5.0.11.0	win	012220	17:41:18	0004	2	0	arrowFlanker	3	1	targetleft_congruent	134	72	1	2	2	0	0	1750
5.0.11.0	win	012220	17:41:18	0004	2	0	arrowFlanker	3	1	targetleft_congruent	136	73	1	2	2	0	0	1750
5.0.11.0	win	012220	17:41:18	0004	2	0	arrowFlanker	3	1	targetleft_incongruent	138	74	2	2	1	205	0	46
