build	computer.platform	date	time	subject	group	values.practice	blockcode	blocknum	values.blockcount	trialcode	trialnum	values.trialcount	values.congruence	values.selecttarget	values.selectflanker	response	correct	latency
5.0.11.0	win	012420	14:14:33	005	2	1	practice	2	0	targetright_incongruent	2	1	2	1	2	205	1	361
5.0.11.0	win	012420	14:14:33	005	2	1	practice	2	0	targetright_congruent	4	2	1	1	1	205	1	393
5.0.11.0	win	012420	14:14:33	005	2	1	practice	2	0	targetleft_incongruent	6	3	2	2	1	203	1	393
5.0.11.0	win	012420	14:14:33	005	2	1	practice	2	0	targetleft_congruent	8	4	1	2	2	203	1	377
5.0.11.0	win	012420	14:14:33	005	2	1	practice	2	0	targetright_congruent	10	5	1	1	1	205	1	313
5.0.11.0	win	012420	14:14:33	005	2	1	practice	2	0	targetleft_congruent	12	6	1	2	2	203	1	329
5.0.11.0	win	012420	14:14:33	005	2	1	practice	2	0	targetright_congruent	14	7	1	1	1	205	1	409
5.0.11.0	win	012420	14:14:33	005	2	1	practice	2	0	targetleft_incongruent	16	8	2	2	1	203	1	441
5.0.11.0	win	012420	14:14:33	005	2	1	practice	2	0	targetright_incongruent	18	9	2	1	2	205	1	329
5.0.11.0	win	012420	14:14:33	005	2	0	arrowFlanker	3	1	prefatory	2	9	1	2	2	203	1	424
5.0.11.0	win	012420	14:14:33	005	2	0	arrowFlanker	3	1	prefatory	4	9	1	2	2	203	1	344
5.0.11.0	win	012420	14:14:33	005	2	0	arrowFlanker	3	1	prefatory	6	9	1	2	2	203	1	296
5.0.11.0	win	012420	14:14:33	005	2	0	arrowFlanker	3	1	prefatory	8	9	1	1	1	205	1	760
5.0.11.0	win	012420	14:14:33	005	2	0	arrowFlanker	3	1	targetright_incongruent	10	10	2	1	2	205	1	360
5.0.11.0	win	012420	14:14:33	005	2	0	arrowFlanker	3	1	targetright_incongruent	12	11	2	1	2	205	1	408
5.0.11.0	win	012420	14:14:33	005	2	0	arrowFlanker	3	1	targetright_incongruent	14	12	2	1	2	205	1	600
5.0.11.0	win	012420	14:14:33	005	2	0	arrowFlanker	3	1	targetleft_congruent	16	13	1	2	2	203	1	552
5.0.11.0	win	012420	14:14:33	005	2	0	arrowFlanker	3	1	targetleft_incongruent	18	14	2	2	1	203	1	391
5.0.11.0	win	012420	14:14:33	005	2	0	arrowFlanker	3	1	targetleft_incongruent	20	15	2	2	1	203	1	344
5.0.11.0	win	012420	14:14:33	005	2	0	arrowFlanker	3	1	targetleft_congruent	22	16	1	2	2	203	1	344
5.0.11.0	win	012420	14:14:33	005	2	0	arrowFlanker	3	1	targetright_congruent	24	17	1	1	1	205	1	344
5.0.11.0	win	012420	14:14:33	005	2	0	arrowFlanker	3	1	targetright_congruent	26	18	1	1	1	205	1	391
5.0.11.0	win	012420	14:14:33	005	2	0	arrowFlanker	3	1	targetleft_congruent	28	19	1	2	2	203	1	312
5.0.11.0	win	012420	14:14:33	005	2	0	arrowFlanker	3	1	targetright_congruent	30	20	1	1	1	205	1	344
5.0.11.0	win	012420	14:14:33	005	2	0	arrowFlanker	3	1	targetright_congruent	32	21	1	1	1	205	1	344
5.0.11.0	win	012420	14:14:33	005	2	0	arrowFlanker	3	1	targetright_incongruent	34	22	2	1	2	205	1	424
5.0.11.0	win	012420	14:14:33	005	2	0	arrowFlanker	3	1	targetright_congruent	36	23	1	1	1	205	1	360
5.0.11.0	win	012420	14:14:33	005	2	0	arrowFlanker	3	1	targetleft_incongruent	38	24	2	2	1	203	1	456
5.0.11.0	win	012420	14:14:33	005	2	0	arrowFlanker	3	1	targetright_incongruent	40	25	2	1	2	205	1	344
5.0.11.0	win	012420	14:14:33	005	2	0	arrowFlanker	3	1	targetright_incongruent	42	26	2	1	2	205	1	408
5.0.11.0	win	012420	14:14:33	005	2	0	arrowFlanker	3	1	targetright_congruent	44	27	1	1	1	205	1	600
5.0.11.0	win	012420	14:14:33	005	2	0	arrowFlanker	3	1	targetleft_congruent	46	28	1	2	2	203	1	328
5.0.11.0	win	012420	14:14:33	005	2	0	arrowFlanker	3	1	targetleft_incongruent	48	29	2	2	1	205	0	328
5.0.11.0	win	012420	14:14:33	005	2	0	arrowFlanker	3	1	targetleft_incongruent	50	30	2	2	1	205	0	280
5.0.11.0	win	012420	14:14:33	005	2	0	arrowFlanker	3	1	targetright_incongruent	52	31	2	1	2	205	1	376
5.0.11.0	win	012420	14:14:33	005	2	0	arrowFlanker	3	1	targetright_incongruent	54	32	2	1	2	205	1	376
5.0.11.0	win	012420	14:14:33	005	2	0	arrowFlanker	3	1	targetright_incongruent	56	33	2	1	2	205	1	407
5.0.11.0	win	012420	14:14:33	005	2	0	arrowFlanker	3	1	targetright_congruent	58	34	1	1	1	205	1	600
5.0.11.0	win	012420	14:14:33	005	2	0	arrowFlanker	3	1	targetright_incongruent	60	35	2	1	2	205	1	391
5.0.11.0	win	012420	14:14:33	005	2	0	arrowFlanker	3	1	targetright_congruent	62	36	1	1	1	205	1	392
5.0.11.0	win	012420	14:14:33	005	2	0	arrowFlanker	3	1	targetright_incongruent	64	37	2	1	2	205	1	376
5.0.11.0	win	012420	14:14:33	005	2	0	arrowFlanker	3	1	targetleft_congruent	66	38	1	2	2	203	1	775
5.0.11.0	win	012420	14:14:33	005	2	0	arrowFlanker	3	1	targetright_incongruent	68	39	2	1	2	205	1	424
5.0.11.0	win	012420	14:14:33	005	2	0	arrowFlanker	3	1	targetleft_incongruent	70	40	2	2	1	203	1	360
5.0.11.0	win	012420	14:14:33	005	2	0	arrowFlanker	3	1	targetleft_incongruent	72	41	2	2	1	203	1	328
5.0.11.0	win	012420	14:14:33	005	2	0	arrowFlanker	3	1	targetleft_incongruent	74	42	2	2	1	203	1	344
5.0.11.0	win	012420	14:14:33	005	2	0	arrowFlanker	3	1	targetright_incongruent	76	43	2	1	2	205	1	423
5.0.11.0	win	012420	14:14:33	005	2	0	arrowFlanker	3	1	targetleft_incongruent	78	44	2	2	1	203	1	375
5.0.11.0	win	012420	14:14:33	005	2	0	arrowFlanker	3	1	targetright_incongruent	80	45	2	1	2	203	0	360
5.0.11.0	win	012420	14:14:33	005	2	0	arrowFlanker	3	1	targetright_congruent	82	46	1	1	1	205	1	344
5.0.11.0	win	012420	14:14:33	005	2	0	arrowFlanker	3	1	targetleft_incongruent	84	47	2	2	1	203	1	408
5.0.11.0	win	012420	14:14:33	005	2	0	arrowFlanker	3	1	targetright_incongruent	86	48	2	1	2	205	1	344
5.0.11.0	win	012420	14:14:33	005	2	0	arrowFlanker	3	1	targetright_incongruent	88	49	2	1	2	205	1	408
5.0.11.0	win	012420	14:14:33	005	2	0	arrowFlanker	3	1	targetleft_congruent	90	50	1	2	2	203	1	360
5.0.11.0	win	012420	14:14:33	005	2	0	arrowFlanker	3	1	targetleft_congruent	92	51	1	2	2	203	1	375
5.0.11.0	win	012420	14:14:33	005	2	0	arrowFlanker	3	1	targetleft_incongruent	94	52	2	2	1	203	1	408
5.0.11.0	win	012420	14:14:33	005	2	0	arrowFlanker	3	1	targetleft_congruent	96	53	1	2	2	203	1	312
5.0.11.0	win	012420	14:14:33	005	2	0	arrowFlanker	3	1	targetleft_incongruent	98	54	2	2	1	203	1	407
5.0.11.0	win	012420	14:14:33	005	2	0	arrowFlanker	3	1	targetleft_congruent	100	55	1	2	2	203	1	280
5.0.11.0	win	012420	14:14:33	005	2	0	arrowFlanker	3	1	targetright_congruent	102	56	1	1	1	205	1	343
5.0.11.0	win	012420	14:14:33	005	2	0	arrowFlanker	3	1	targetleft_incongruent	104	57	2	2	1	203	1	375
5.0.11.0	win	012420	14:14:33	005	2	0	arrowFlanker	3	1	targetright_congruent	106	58	1	1	1	205	1	360
5.0.11.0	win	012420	14:14:33	005	2	0	arrowFlanker	3	1	targetright_incongruent	108	59	2	1	2	203	0	296
5.0.11.0	win	012420	14:14:33	005	2	0	arrowFlanker	3	1	targetleft_congruent	110	60	1	2	2	203	1	296
5.0.11.0	win	012420	14:14:33	005	2	0	arrowFlanker	3	1	targetleft_incongruent	112	61	2	2	1	203	1	359
5.0.11.0	win	012420	14:14:33	005	2	0	arrowFlanker	3	1	targetleft_congruent	114	62	1	2	2	203	1	312
5.0.11.0	win	012420	14:14:33	005	2	0	arrowFlanker	3	1	targetright_congruent	116	63	1	1	1	205	1	376
5.0.11.0	win	012420	14:14:33	005	2	0	arrowFlanker	3	1	targetright_congruent	118	64	1	1	1	205	1	359
5.0.11.0	win	012420	14:14:33	005	2	0	arrowFlanker	3	1	targetleft_congruent	120	65	1	2	2	203	1	376
5.0.11.0	win	012420	14:14:33	005	2	0	arrowFlanker	3	1	targetleft_incongruent	122	66	2	2	1	203	1	392
5.0.11.0	win	012420	14:14:33	005	2	0	arrowFlanker	3	1	targetleft_congruent	124	67	1	2	2	203	1	360
5.0.11.0	win	012420	14:14:33	005	2	0	arrowFlanker	3	1	targetright_congruent	126	68	1	1	1	205	1	376
5.0.11.0	win	012420	14:14:33	005	2	0	arrowFlanker	3	1	targetleft_incongruent	128	69	2	2	1	203	1	376
5.0.11.0	win	012420	14:14:33	005	2	0	arrowFlanker	3	1	targetleft_congruent	130	70	1	2	2	203	1	344
5.0.11.0	win	012420	14:14:33	005	2	0	arrowFlanker	3	1	targetright_congruent	132	71	1	1	1	205	1	360
5.0.11.0	win	012420	14:14:33	005	2	0	arrowFlanker	3	1	targetleft_incongruent	134	72	2	2	1	203	1	407
5.0.11.0	win	012420	14:14:33	005	2	0	arrowFlanker	3	1	targetright_congruent	136	73	1	1	1	205	1	407
5.0.11.0	win	012420	14:14:33	005	2	0	arrowFlanker	3	1	targetleft_congruent	138	74	1	2	2	203	1	327
