build	computer.platform	date	time	subject	group	values.practice	blockcode	blocknum	values.blockcount	trialcode	trialnum	values.trialcount	values.congruence	values.selecttarget	values.selectflanker	response	correct	latency
5.0.11.0	win	120619	14:47:37	003	2	1	practice	2	0	targetleft_incongruent	2	1	2	2	1	203	1	496
5.0.11.0	win	120619	14:47:37	003	2	1	practice	2	0	targetleft_congruent	4	2	1	2	2	203	1	336
5.0.11.0	win	120619	14:47:37	003	2	1	practice	2	0	targetleft_incongruent	6	3	2	2	1	203	1	368
5.0.11.0	win	120619	14:47:37	003	2	1	practice	2	0	targetright_congruent	8	4	1	1	1	205	1	288
5.0.11.0	win	120619	14:47:37	003	2	1	practice	2	0	targetright_incongruent	10	5	2	1	2	205	1	336
5.0.11.0	win	120619	14:47:37	003	2	1	practice	2	0	targetright_incongruent	12	6	2	1	2	205	1	496
5.0.11.0	win	120619	14:47:37	003	2	1	practice	2	0	targetleft_congruent	14	7	1	2	2	203	1	352
5.0.11.0	win	120619	14:47:37	003	2	1	practice	2	0	targetright_congruent	16	8	1	1	1	205	1	335
5.0.11.0	win	120619	14:47:37	003	2	1	practice	2	0	targetleft_incongruent	18	9	2	2	1	203	1	399
5.0.11.0	win	120619	14:47:37	003	2	0	arrowFlanker	3	1	prefatory	2	9	1	1	1	205	1	379
5.0.11.0	win	120619	14:47:37	003	2	0	arrowFlanker	3	1	prefatory	4	9	1	1	1	205	1	347
5.0.11.0	win	120619	14:47:37	003	2	0	arrowFlanker	3	1	prefatory	6	9	1	1	1	205	1	379
5.0.11.0	win	120619	14:47:37	003	2	0	arrowFlanker	3	1	prefatory	8	9	1	2	2	203	1	363
5.0.11.0	win	120619	14:47:37	003	2	0	arrowFlanker	3	1	targetleft_incongruent	10	10	2	2	1	203	1	443
5.0.11.0	win	120619	14:47:37	003	2	0	arrowFlanker	3	1	targetright_incongruent	12	11	2	1	2	205	1	315
5.0.11.0	win	120619	14:47:37	003	2	0	arrowFlanker	3	1	targetleft_congruent	14	12	1	2	2	203	1	411
5.0.11.0	win	120619	14:47:37	003	2	0	arrowFlanker	3	1	targetright_congruent	16	13	1	1	1	205	1	331
5.0.11.0	win	120619	14:47:37	003	2	0	arrowFlanker	3	1	targetright_incongruent	18	14	2	1	2	205	1	363
5.0.11.0	win	120619	14:47:37	003	2	0	arrowFlanker	3	1	targetleft_congruent	20	15	1	2	2	203	1	411
5.0.11.0	win	120619	14:47:37	003	2	0	arrowFlanker	3	1	targetleft_incongruent	22	16	2	2	1	203	1	395
5.0.11.0	win	120619	14:47:37	003	2	0	arrowFlanker	3	1	targetleft_congruent	24	17	1	2	2	203	1	315
5.0.11.0	win	120619	14:47:37	003	2	0	arrowFlanker	3	1	targetright_congruent	26	18	1	1	1	205	1	427
5.0.11.0	win	120619	14:47:37	003	2	0	arrowFlanker	3	1	targetright_congruent	28	19	1	1	1	205	1	347
5.0.11.0	win	120619	14:47:37	003	2	0	arrowFlanker	3	1	targetleft_incongruent	30	20	2	2	1	203	1	443
5.0.11.0	win	120619	14:47:37	003	2	0	arrowFlanker	3	1	targetright_incongruent	32	21	2	1	2	205	1	411
5.0.11.0	win	120619	14:47:37	003	2	0	arrowFlanker	3	1	targetright_incongruent	34	22	2	1	2	205	1	363
5.0.11.0	win	120619	14:47:37	003	2	0	arrowFlanker	3	1	targetright_congruent	36	23	1	1	1	205	1	379
5.0.11.0	win	120619	14:47:37	003	2	0	arrowFlanker	3	1	targetleft_incongruent	38	24	2	2	1	203	1	523
5.0.11.0	win	120619	14:47:37	003	2	0	arrowFlanker	3	1	targetright_incongruent	40	25	2	1	2	205	1	363
5.0.11.0	win	120619	14:47:37	003	2	0	arrowFlanker	3	1	targetright_incongruent	42	26	2	1	2	205	1	395
5.0.11.0	win	120619	14:47:37	003	2	0	arrowFlanker	3	1	targetleft_incongruent	44	27	2	2	1	203	1	379
5.0.11.0	win	120619	14:47:37	003	2	0	arrowFlanker	3	1	targetleft_incongruent	46	28	2	2	1	203	1	411
5.0.11.0	win	120619	14:47:37	003	2	0	arrowFlanker	3	1	targetleft_incongruent	48	29	2	2	1	203	1	379
5.0.11.0	win	120619	14:47:37	003	2	0	arrowFlanker	3	1	targetright_congruent	50	30	1	1	1	205	1	347
5.0.11.0	win	120619	14:47:37	003	2	0	arrowFlanker	3	1	targetright_incongruent	52	31	2	1	2	205	1	411
5.0.11.0	win	120619	14:47:37	003	2	0	arrowFlanker	3	1	targetright_congruent	54	32	1	1	1	205	1	363
5.0.11.0	win	120619	14:47:37	003	2	0	arrowFlanker	3	1	targetleft_congruent	56	33	1	2	2	203	1	315
5.0.11.0	win	120619	14:47:37	003	2	0	arrowFlanker	3	1	targetright_incongruent	58	34	2	1	2	205	1	395
5.0.11.0	win	120619	14:47:37	003	2	0	arrowFlanker	3	1	targetright_incongruent	60	35	2	1	2	205	1	411
5.0.11.0	win	120619	14:47:37	003	2	0	arrowFlanker	3	1	targetleft_incongruent	62	36	2	2	1	203	1	443
5.0.11.0	win	120619	14:47:37	003	2	0	arrowFlanker	3	1	targetright_incongruent	64	37	2	1	2	205	1	363
5.0.11.0	win	120619	14:47:37	003	2	0	arrowFlanker	3	1	targetright_congruent	66	38	1	1	1	205	1	363
5.0.11.0	win	120619	14:47:37	003	2	0	arrowFlanker	3	1	targetright_incongruent	68	39	2	1	2	205	1	491
5.0.11.0	win	120619	14:47:37	003	2	0	arrowFlanker	3	1	targetleft_congruent	70	40	1	2	2	203	1	491
5.0.11.0	win	120619	14:47:37	003	2	0	arrowFlanker	3	1	targetleft_congruent	72	41	1	2	2	203	1	427
5.0.11.0	win	120619	14:47:37	003	2	0	arrowFlanker	3	1	targetright_incongruent	74	42	2	1	2	205	1	427
5.0.11.0	win	120619	14:47:37	003	2	0	arrowFlanker	3	1	targetleft_congruent	76	43	1	2	2	203	1	379
5.0.11.0	win	120619	14:47:37	003	2	0	arrowFlanker	3	1	targetright_congruent	78	44	1	1	1	205	1	299
5.0.11.0	win	120619	14:47:37	003	2	0	arrowFlanker	3	1	targetright_congruent	80	45	1	1	1	205	1	331
5.0.11.0	win	120619	14:47:37	003	2	0	arrowFlanker	3	1	targetleft_congruent	82	46	1	2	2	203	1	395
5.0.11.0	win	120619	14:47:37	003	2	0	arrowFlanker	3	1	targetleft_congruent	84	47	1	2	2	203	1	379
5.0.11.0	win	120619	14:47:37	003	2	0	arrowFlanker	3	1	targetright_congruent	86	48	1	1	1	205	1	379
5.0.11.0	win	120619	14:47:37	003	2	0	arrowFlanker	3	1	targetleft_congruent	88	49	1	2	2	203	1	699
5.0.11.0	win	120619	14:47:37	003	2	0	arrowFlanker	3	1	targetleft_congruent	90	50	1	2	2	203	1	427
5.0.11.0	win	120619	14:47:37	003	2	0	arrowFlanker	3	1	targetleft_congruent	92	51	1	2	2	203	1	411
5.0.11.0	win	120619	14:47:37	003	2	0	arrowFlanker	3	1	targetright_congruent	94	52	1	1	1	205	1	315
5.0.11.0	win	120619	14:47:37	003	2	0	arrowFlanker	3	1	targetleft_incongruent	96	53	2	2	1	203	1	394
5.0.11.0	win	120619	14:47:37	003	2	0	arrowFlanker	3	1	targetright_incongruent	98	54	2	1	2	205	1	411
5.0.11.0	win	120619	14:47:37	003	2	0	arrowFlanker	3	1	targetleft_incongruent	100	55	2	2	1	203	1	395
5.0.11.0	win	120619	14:47:37	003	2	0	arrowFlanker	3	1	targetright_congruent	102	56	1	1	1	205	1	347
5.0.11.0	win	120619	14:47:37	003	2	0	arrowFlanker	3	1	targetright_congruent	104	57	1	1	1	205	1	315
5.0.11.0	win	120619	14:47:37	003	2	0	arrowFlanker	3	1	targetright_incongruent	106	58	2	1	2	205	1	363
5.0.11.0	win	120619	14:47:37	003	2	0	arrowFlanker	3	1	targetright_congruent	108	59	1	1	1	205	1	315
5.0.11.0	win	120619	14:47:37	003	2	0	arrowFlanker	3	1	targetright_incongruent	110	60	2	1	2	205	1	443
5.0.11.0	win	120619	14:47:37	003	2	0	arrowFlanker	3	1	targetright_congruent	112	61	1	1	1	205	1	363
5.0.11.0	win	120619	14:47:37	003	2	0	arrowFlanker	3	1	targetright_incongruent	114	62	2	1	2	205	1	411
5.0.11.0	win	120619	14:47:37	003	2	0	arrowFlanker	3	1	targetleft_congruent	116	63	1	2	2	203	1	379
5.0.11.0	win	120619	14:47:37	003	2	0	arrowFlanker	3	1	targetleft_congruent	118	64	1	2	2	203	1	427
5.0.11.0	win	120619	14:47:37	003	2	0	arrowFlanker	3	1	targetright_congruent	120	65	1	1	1	205	1	347
5.0.11.0	win	120619	14:47:37	003	2	0	arrowFlanker	3	1	targetleft_congruent	122	66	1	2	2	203	1	459
5.0.11.0	win	120619	14:47:37	003	2	0	arrowFlanker	3	1	targetleft_incongruent	124	67	2	2	1	203	1	827
5.0.11.0	win	120619	14:47:37	003	2	0	arrowFlanker	3	1	targetleft_incongruent	126	68	2	2	1	203	1	523
5.0.11.0	win	120619	14:47:37	003	2	0	arrowFlanker	3	1	targetleft_congruent	128	69	1	2	2	203	1	395
5.0.11.0	win	120619	14:47:37	003	2	0	arrowFlanker	3	1	targetleft_incongruent	130	70	2	2	1	203	1	571
5.0.11.0	win	120619	14:47:37	003	2	0	arrowFlanker	3	1	targetright_incongruent	132	71	2	1	2	203	0	635
5.0.11.0	win	120619	14:47:37	003	2	0	arrowFlanker	3	1	targetleft_incongruent	134	72	2	2	1	203	1	427
5.0.11.0	win	120619	14:47:37	003	2	0	arrowFlanker	3	1	targetleft_incongruent	136	73	2	2	1	203	1	347
5.0.11.0	win	120619	14:47:37	003	2	0	arrowFlanker	3	1	targetright_congruent	138	74	1	1	1	205	1	427
