build	computer.platform	date	time	subject	group	values.practice	blockcode	blocknum	values.blockcount	trialcode	trialnum	values.trialcount	values.congruence	values.selecttarget	values.selectflanker	response	correct	latency
5.0.11.0	win	120519	17:23:13	3687	2	1	practice	2	0	targetleft_incongruent	2	1	2	2	1	203	1	775
5.0.11.0	win	120519	17:23:13	3687	2	1	practice	2	0	targetright_incongruent	4	2	2	1	2	205	1	439
5.0.11.0	win	120519	17:23:13	3687	2	1	practice	2	0	targetright_congruent	6	3	1	1	1	205	1	359
5.0.11.0	win	120519	17:23:13	3687	2	1	practice	2	0	targetright_congruent	8	4	1	1	1	205	1	423
5.0.11.0	win	120519	17:23:13	3687	2	1	practice	2	0	targetleft_incongruent	10	5	2	2	1	203	1	407
5.0.11.0	win	120519	17:23:13	3687	2	1	practice	2	0	targetright_incongruent	12	6	2	1	2	205	1	231
5.0.11.0	win	120519	17:23:13	3687	2	1	practice	2	0	targetleft_congruent	14	7	1	2	2	203	1	296
5.0.11.0	win	120519	17:23:13	3687	2	1	practice	2	0	targetleft_congruent	16	8	1	2	2	205	0	263
5.0.11.0	win	120519	17:23:13	3687	2	1	practice	2	0	targetleft_incongruent	19	9	2	2	1	203	1	431
5.0.11.0	win	120519	17:23:13	3687	2	0	arrowFlanker	3	1	prefatory	2	9	1	2	2	203	1	511
5.0.11.0	win	120519	17:23:13	3687	2	0	arrowFlanker	3	1	prefatory	4	9	2	2	1	205	0	463
5.0.11.0	win	120519	17:23:13	3687	2	0	arrowFlanker	3	1	prefatory	6	9	1	1	1	205	1	415
5.0.11.0	win	120519	17:23:13	3687	2	0	arrowFlanker	3	1	prefatory	8	9	1	1	1	205	1	383
5.0.11.0	win	120519	17:23:13	3687	2	0	arrowFlanker	3	1	targetright_congruent	10	10	1	1	1	205	1	399
5.0.11.0	win	120519	17:23:13	3687	2	0	arrowFlanker	3	1	targetright_incongruent	12	11	2	1	2	205	1	543
5.0.11.0	win	120519	17:23:13	3687	2	0	arrowFlanker	3	1	targetright_congruent	14	12	1	1	1	205	1	383
5.0.11.0	win	120519	17:23:13	3687	2	0	arrowFlanker	3	1	targetleft_congruent	16	13	1	2	2	203	1	431
5.0.11.0	win	120519	17:23:13	3687	2	0	arrowFlanker	3	1	targetleft_incongruent	18	14	2	2	1	205	0	335
5.0.11.0	win	120519	17:23:13	3687	2	0	arrowFlanker	3	1	targetleft_congruent	20	15	1	2	2	203	1	383
5.0.11.0	win	120519	17:23:13	3687	2	0	arrowFlanker	3	1	targetright_congruent	22	16	1	1	1	205	1	431
5.0.11.0	win	120519	17:23:13	3687	2	0	arrowFlanker	3	1	targetright_incongruent	24	17	2	1	2	205	1	1039
5.0.11.0	win	120519	17:23:13	3687	2	0	arrowFlanker	3	1	targetleft_congruent	26	18	1	2	2	203	1	511
5.0.11.0	win	120519	17:23:13	3687	2	0	arrowFlanker	3	1	targetright_congruent	28	19	1	1	1	205	1	303
5.0.11.0	win	120519	17:23:13	3687	2	0	arrowFlanker	3	1	targetleft_incongruent	30	20	2	2	1	203	1	303
5.0.11.0	win	120519	17:23:13	3687	2	0	arrowFlanker	3	1	targetright_congruent	32	21	1	1	1	205	1	415
5.0.11.0	win	120519	17:23:13	3687	2	0	arrowFlanker	3	1	targetleft_congruent	34	22	1	2	2	203	1	431
5.0.11.0	win	120519	17:23:13	3687	2	0	arrowFlanker	3	1	targetright_incongruent	36	23	2	1	2	205	1	447
5.0.11.0	win	120519	17:23:13	3687	2	0	arrowFlanker	3	1	targetleft_congruent	38	24	1	2	2	203	1	351
5.0.11.0	win	120519	17:23:13	3687	2	0	arrowFlanker	3	1	targetleft_congruent	40	25	1	2	2	203	1	559
5.0.11.0	win	120519	17:23:13	3687	2	0	arrowFlanker	3	1	targetright_incongruent	42	26	2	1	2	205	1	431
5.0.11.0	win	120519	17:23:13	3687	2	0	arrowFlanker	3	1	targetleft_congruent	44	27	1	2	2	203	1	479
5.0.11.0	win	120519	17:23:13	3687	2	0	arrowFlanker	3	1	targetright_congruent	46	28	1	1	1	205	1	351
5.0.11.0	win	120519	17:23:13	3687	2	0	arrowFlanker	3	1	targetleft_incongruent	48	29	2	2	1	203	1	479
5.0.11.0	win	120519	17:23:13	3687	2	0	arrowFlanker	3	1	targetleft_incongruent	50	30	2	2	1	203	1	495
5.0.11.0	win	120519	17:23:13	3687	2	0	arrowFlanker	3	1	targetright_congruent	52	31	1	1	1	205	1	367
5.0.11.0	win	120519	17:23:13	3687	2	0	arrowFlanker	3	1	targetleft_congruent	54	32	1	2	2	203	1	351
5.0.11.0	win	120519	17:23:13	3687	2	0	arrowFlanker	3	1	targetleft_incongruent	56	33	2	2	1	203	1	479
5.0.11.0	win	120519	17:23:13	3687	2	0	arrowFlanker	3	1	targetleft_incongruent	58	34	2	2	1	203	1	479
5.0.11.0	win	120519	17:23:13	3687	2	0	arrowFlanker	3	1	targetleft_congruent	60	35	1	2	2	203	1	447
5.0.11.0	win	120519	17:23:13	3687	2	0	arrowFlanker	3	1	targetleft_congruent	62	36	1	2	2	203	1	383
5.0.11.0	win	120519	17:23:13	3687	2	0	arrowFlanker	3	1	targetright_congruent	64	37	1	1	1	205	1	463
5.0.11.0	win	120519	17:23:13	3687	2	0	arrowFlanker	3	1	targetleft_incongruent	66	38	2	2	1	203	1	591
5.0.11.0	win	120519	17:23:13	3687	2	0	arrowFlanker	3	1	targetleft_congruent	68	39	1	2	2	203	1	543
5.0.11.0	win	120519	17:23:13	3687	2	0	arrowFlanker	3	1	targetright_incongruent	70	40	2	1	2	205	1	447
5.0.11.0	win	120519	17:23:13	3687	2	0	arrowFlanker	3	1	targetleft_incongruent	72	41	2	2	1	203	1	591
5.0.11.0	win	120519	17:23:13	3687	2	0	arrowFlanker	3	1	targetright_incongruent	74	42	2	1	2	205	1	463
5.0.11.0	win	120519	17:23:13	3687	2	0	arrowFlanker	3	1	targetright_congruent	76	43	1	1	1	205	1	495
5.0.11.0	win	120519	17:23:13	3687	2	0	arrowFlanker	3	1	targetleft_incongruent	78	44	2	2	1	203	1	495
5.0.11.0	win	120519	17:23:13	3687	2	0	arrowFlanker	3	1	targetleft_incongruent	80	45	2	2	1	203	1	543
5.0.11.0	win	120519	17:23:13	3687	2	0	arrowFlanker	3	1	targetleft_congruent	82	46	1	2	2	203	1	431
5.0.11.0	win	120519	17:23:13	3687	2	0	arrowFlanker	3	1	targetright_congruent	84	47	1	1	1	205	1	703
5.0.11.0	win	120519	17:23:13	3687	2	0	arrowFlanker	3	1	targetleft_incongruent	86	48	2	2	1	203	1	495
5.0.11.0	win	120519	17:23:13	3687	2	0	arrowFlanker	3	1	targetleft_incongruent	88	49	2	2	1	203	1	447
5.0.11.0	win	120519	17:23:13	3687	2	0	arrowFlanker	3	1	targetright_congruent	90	50	1	1	1	205	1	495
5.0.11.0	win	120519	17:23:13	3687	2	0	arrowFlanker	3	1	targetright_incongruent	92	51	2	1	2	205	1	639
5.0.11.0	win	120519	17:23:13	3687	2	0	arrowFlanker	3	1	targetleft_congruent	94	52	1	2	2	203	1	527
5.0.11.0	win	120519	17:23:13	3687	2	0	arrowFlanker	3	1	targetright_congruent	96	53	1	1	1	205	1	463
5.0.11.0	win	120519	17:23:13	3687	2	0	arrowFlanker	3	1	targetright_incongruent	98	54	2	1	2	205	1	479
5.0.11.0	win	120519	17:23:13	3687	2	0	arrowFlanker	3	1	targetright_congruent	100	55	1	1	1	205	1	623
5.0.11.0	win	120519	17:23:13	3687	2	0	arrowFlanker	3	1	targetright_incongruent	102	56	2	1	2	205	1	543
5.0.11.0	win	120519	17:23:13	3687	2	0	arrowFlanker	3	1	targetright_congruent	104	57	1	1	1	205	1	511
5.0.11.0	win	120519	17:23:13	3687	2	0	arrowFlanker	3	1	targetleft_incongruent	106	58	2	2	1	203	1	511
5.0.11.0	win	120519	17:23:13	3687	2	0	arrowFlanker	3	1	targetright_incongruent	108	59	2	1	2	205	1	527
5.0.11.0	win	120519	17:23:13	3687	2	0	arrowFlanker	3	1	targetright_congruent	110	60	1	1	1	205	1	431
5.0.11.0	win	120519	17:23:13	3687	2	0	arrowFlanker	3	1	targetright_incongruent	112	61	2	1	2	205	1	431
5.0.11.0	win	120519	17:23:13	3687	2	0	arrowFlanker	3	1	targetleft_incongruent	114	62	2	2	1	203	1	527
5.0.11.0	win	120519	17:23:13	3687	2	0	arrowFlanker	3	1	targetright_congruent	116	63	1	1	1	205	1	447
5.0.11.0	win	120519	17:23:13	3687	2	0	arrowFlanker	3	1	targetleft_incongruent	118	64	2	2	1	203	1	479
5.0.11.0	win	120519	17:23:13	3687	2	0	arrowFlanker	3	1	targetleft_congruent	120	65	1	2	2	203	1	367
5.0.11.0	win	120519	17:23:13	3687	2	0	arrowFlanker	3	1	targetleft_congruent	122	66	1	2	2	203	1	511
5.0.11.0	win	120519	17:23:13	3687	2	0	arrowFlanker	3	1	targetright_incongruent	124	67	2	1	2	205	1	511
5.0.11.0	win	120519	17:23:13	3687	2	0	arrowFlanker	3	1	targetright_incongruent	126	68	2	1	2	205	1	559
5.0.11.0	win	120519	17:23:13	3687	2	0	arrowFlanker	3	1	targetleft_congruent	128	69	1	2	2	203	1	319
5.0.11.0	win	120519	17:23:13	3687	2	0	arrowFlanker	3	1	targetright_congruent	130	70	1	1	1	205	1	543
5.0.11.0	win	120519	17:23:13	3687	2	0	arrowFlanker	3	1	targetleft_incongruent	132	71	2	2	1	203	1	543
5.0.11.0	win	120519	17:23:13	3687	2	0	arrowFlanker	3	1	targetright_incongruent	134	72	2	1	2	205	1	527
5.0.11.0	win	120519	17:23:13	3687	2	0	arrowFlanker	3	1	targetleft_incongruent	136	73	2	2	1	203	1	559
5.0.11.0	win	120519	17:23:13	3687	2	0	arrowFlanker	3	1	targetright_incongruent	138	74	2	1	2	205	1	415
