build	computer.platform	date	time	subject	blockcode	blocknum	trialcode	trialnum	values.congruency	stimulusitem1	response	correct	latency
5.0.11.0	win	012720	14:24:22	006	stroop	3	blueincongruent	2	2	green	4	1	2167
5.0.11.0	win	012720	14:24:22	006	stroop	3	blueincongruent	3	2	black	4	1	1258
5.0.11.0	win	012720	14:24:22	006	stroop	3	blackcontrol	4	3	blue	5	1	1264
5.0.11.0	win	012720	14:24:22	006	stroop	3	redincongruent	5	2	black	2	1	1430
5.0.11.0	win	012720	14:24:22	006	stroop	3	greenincongruent	6	2	red	3	1	2262
5.0.11.0	win	012720	14:24:22	006	stroop	3	blackincongruent	7	2	green	5	1	1398
5.0.11.0	win	012720	14:24:22	006	stroop	3	blueincongruent	8	2	red	4	1	1526
5.0.11.0	win	012720	14:24:22	006	stroop	3	bluecontrol	9	3	green	4	1	867
5.0.11.0	win	012720	14:24:22	006	stroop	3	greencontrol	10	3	red	3	1	1145
5.0.11.0	win	012720	14:24:22	006	stroop	3	bluecongruent	11	1	blue	4	1	1220
5.0.11.0	win	012720	14:24:22	006	stroop	3	blackcongruent	12	1	black	5	1	1196
5.0.11.0	win	012720	14:24:22	006	stroop	3	redcontrol	13	3	black	3	0	1061
5.0.11.0	win	012720	14:24:22	006	stroop	3	redcontrol	14	3	blue	2	1	2004
5.0.11.0	win	012720	14:24:22	006	stroop	3	greencongruent	15	1	green	3	1	1165
5.0.11.0	win	012720	14:24:22	006	stroop	3	bluecongruent	16	1	blue	4	1	1032
5.0.11.0	win	012720	14:24:22	006	stroop	3	bluecontrol	17	3	black	4	1	728
5.0.11.0	win	012720	14:24:22	006	stroop	3	bluecontrol	18	3	black	4	1	452
5.0.11.0	win	012720	14:24:22	006	stroop	3	greenincongruent	19	2	blue	3	1	1034
5.0.11.0	win	012720	14:24:22	006	stroop	3	redcongruent	20	1	red	2	1	714
5.0.11.0	win	012720	14:24:22	006	stroop	3	blackincongruent	21	2	red	5	1	1080
5.0.11.0	win	012720	14:24:22	006	stroop	3	redcontrol	22	3	green	2	1	1077
5.0.11.0	win	012720	14:24:22	006	stroop	3	redcongruent	23	1	red	2	1	771
5.0.11.0	win	012720	14:24:22	006	stroop	3	greencongruent	24	1	green	3	1	1566
5.0.11.0	win	012720	14:24:22	006	stroop	3	blackcongruent	25	1	black	5	1	921
5.0.11.0	win	012720	14:24:22	006	stroop	3	bluecontrol	26	3	green	4	1	909
5.0.11.0	win	012720	14:24:22	006	stroop	3	redincongruent	27	2	green	2	1	1026
5.0.11.0	win	012720	14:24:22	006	stroop	3	blueincongruent	28	2	red	4	1	1746
5.0.11.0	win	012720	14:24:22	006	stroop	3	redincongruent	29	2	black	2	1	1222
5.0.11.0	win	012720	14:24:22	006	stroop	3	redcongruent	30	1	red	2	1	781
5.0.11.0	win	012720	14:24:22	006	stroop	3	redcontrol	31	3	blue	2	1	648
5.0.11.0	win	012720	14:24:22	006	stroop	3	redcongruent	32	1	red	2	1	742
5.0.11.0	win	012720	14:24:22	006	stroop	3	greenincongruent	33	2	black	3	1	1378
5.0.11.0	win	012720	14:24:22	006	stroop	3	blackcongruent	34	1	black	5	1	884
5.0.11.0	win	012720	14:24:22	006	stroop	3	blackcontrol	35	3	green	5	1	714
5.0.11.0	win	012720	14:24:22	006	stroop	3	redincongruent	36	2	blue	2	1	1143
5.0.11.0	win	012720	14:24:22	006	stroop	3	greenincongruent	37	2	blue	3	1	1698
5.0.11.0	win	012720	14:24:22	006	stroop	3	blackcontrol	38	3	red	5	1	983
5.0.11.0	win	012720	14:24:22	006	stroop	3	greenincongruent	39	2	red	3	1	1802
5.0.11.0	win	012720	14:24:22	006	stroop	3	greencongruent	40	1	green	3	1	682
5.0.11.0	win	012720	14:24:22	006	stroop	3	blackcongruent	41	1	black	5	1	904
5.0.11.0	win	012720	14:24:22	006	stroop	3	redcongruent	42	1	red	2	1	1148
5.0.11.0	win	012720	14:24:22	006	stroop	3	greencongruent	43	1	green	3	1	1176
5.0.11.0	win	012720	14:24:22	006	stroop	3	greencontrol	44	3	blue	3	1	546
5.0.11.0	win	012720	14:24:22	006	stroop	3	greenincongruent	45	2	black	3	1	485
5.0.11.0	win	012720	14:24:22	006	stroop	3	blackcontrol	46	3	blue	5	1	955
5.0.11.0	win	012720	14:24:22	006	stroop	3	bluecongruent	47	1	blue	4	1	878
5.0.11.0	win	012720	14:24:22	006	stroop	3	blueincongruent	48	2	black	4	1	612
5.0.11.0	win	012720	14:24:22	006	stroop	3	redcongruent	49	1	red	2	1	852
5.0.11.0	win	012720	14:24:22	006	stroop	3	bluecongruent	50	1	blue	4	1	1020
5.0.11.0	win	012720	14:24:22	006	stroop	3	blueincongruent	51	2	green	4	1	2315
5.0.11.0	win	012720	14:24:22	006	stroop	3	redcongruent	52	1	red	2	1	920
5.0.11.0	win	012720	14:24:22	006	stroop	3	blackcontrol	53	3	red	5	1	925
5.0.11.0	win	012720	14:24:22	006	stroop	3	redcontrol	54	3	black	2	1	944
5.0.11.0	win	012720	14:24:22	006	stroop	3	blackincongruent	55	2	green	5	1	1076
5.0.11.0	win	012720	14:24:22	006	stroop	3	redincongruent	56	2	green	2	1	1026
5.0.11.0	win	012720	14:24:22	006	stroop	3	greencontrol	57	3	black	3	1	882
5.0.11.0	win	012720	14:24:22	006	stroop	3	greencontrol	58	3	blue	3	1	584
5.0.11.0	win	012720	14:24:22	006	stroop	3	greenincongruent	59	2	red	3	1	426
5.0.11.0	win	012720	14:24:22	006	stroop	3	greencontrol	60	3	red	3	1	418
5.0.11.0	win	012720	14:24:22	006	stroop	3	bluecontrol	61	3	red	4	1	890
5.0.11.0	win	012720	14:24:22	006	stroop	3	blackincongruent	62	2	blue	5	1	1136
5.0.11.0	win	012720	14:24:22	006	stroop	3	blackincongruent	63	2	red	5	1	1660
5.0.11.0	win	012720	14:24:22	006	stroop	3	blackcongruent	64	1	black	5	1	547
5.0.11.0	win	012720	14:24:22	006	stroop	3	redcontrol	65	3	green	2	1	1030
5.0.11.0	win	012720	14:24:22	006	stroop	3	blackcongruent	66	1	black	5	1	902
5.0.11.0	win	012720	14:24:22	006	stroop	3	greencongruent	67	1	green	3	1	971
5.0.11.0	win	012720	14:24:22	006	stroop	3	bluecontrol	68	3	red	4	1	686
5.0.11.0	win	012720	14:24:22	006	stroop	3	blueincongruent	69	2	black	4	1	572
5.0.11.0	win	012720	14:24:22	006	stroop	3	blackcontrol	70	3	green	5	1	910
5.0.11.0	win	012720	14:24:22	006	stroop	3	bluecongruent	71	1	blue	4	1	1154
5.0.11.0	win	012720	14:24:22	006	stroop	3	redcontrol	72	3	blue	2	1	1246
5.0.11.0	win	012720	14:24:22	006	stroop	3	redincongruent	73	2	green	2	1	677
5.0.11.0	win	012720	14:24:22	006	stroop	3	greencontrol	74	3	black	3	1	1155
5.0.11.0	win	012720	14:24:22	006	stroop	3	greencongruent	75	1	green	3	1	462
5.0.11.0	win	012720	14:24:22	006	stroop	3	blackcontrol	76	3	green	5	1	1028
5.0.11.0	win	012720	14:24:22	006	stroop	3	bluecongruent	77	1	blue	4	1	3142
5.0.11.0	win	012720	14:24:22	006	stroop	3	bluecongruent	78	1	blue	4	1	401
5.0.11.0	win	012720	14:24:22	006	stroop	3	greencongruent	79	1	green	3	1	667
5.0.11.0	win	012720	14:24:22	006	stroop	3	redincongruent	80	2	blue	2	1	776
5.0.11.0	win	012720	14:24:22	006	stroop	3	blackincongruent	81	2	blue	5	1	1010
5.0.11.0	win	012720	14:24:22	006	stroop	3	blackcongruent	82	1	black	5	1	851
5.0.11.0	win	012720	14:24:22	006	stroop	3	blackincongruent	83	2	green	5	1	1370
5.0.11.0	win	012720	14:24:22	006	stroop	3	bluecontrol	84	3	black	4	1	892
5.0.11.0	win	012720	14:24:22	006	stroop	3	greencontrol	85	3	red	3	1	771
