build	computer.platform	date	time	subject	blockcode	blocknum	trialcode	trialnum	values.congruency	stimulusitem1	response	correct	latency
5.0.11.0	win	012220	18:05:48	0004	stroop	3	bluecongruent	2	1	blue	4	1	1490
5.0.11.0	win	012220	18:05:48	0004	stroop	3	blackcongruent	3	1	black	5	1	897
5.0.11.0	win	012220	18:05:48	0004	stroop	3	blackcongruent	4	1	black	5	1	613
5.0.11.0	win	012220	18:05:48	0004	stroop	3	greencontrol	5	3	black	3	1	822
5.0.11.0	win	012220	18:05:48	0004	stroop	3	bluecontrol	6	3	red	4	1	1343
5.0.11.0	win	012220	18:05:48	0004	stroop	3	greenincongruent	7	2	red	3	1	1170
5.0.11.0	win	012220	18:05:48	0004	stroop	3	redcontrol	8	3	green	2	1	813
5.0.11.0	win	012220	18:05:48	0004	stroop	3	blueincongruent	9	2	red	4	1	998
5.0.11.0	win	012220	18:05:48	0004	stroop	3	redcontrol	10	3	blue	2	1	951
5.0.11.0	win	012220	18:05:48	0004	stroop	3	blackincongruent	11	2	green	5	1	874
5.0.11.0	win	012220	18:05:48	0004	stroop	3	blackincongruent	12	2	blue	5	1	497
5.0.11.0	win	012220	18:05:48	0004	stroop	3	bluecontrol	13	3	green	4	1	710
5.0.11.0	win	012220	18:05:48	0004	stroop	3	blackcongruent	14	1	black	5	1	594
5.0.11.0	win	012220	18:05:48	0004	stroop	3	greencontrol	15	3	red	3	1	803
5.0.11.0	win	012220	18:05:48	0004	stroop	3	greenincongruent	16	2	black	3	1	557
5.0.11.0	win	012220	18:05:48	0004	stroop	3	redcontrol	17	3	black	2	1	624
5.0.11.0	win	012220	18:05:48	0004	stroop	3	blackcontrol	18	3	blue	5	1	688
5.0.11.0	win	012220	18:05:48	0004	stroop	3	redincongruent	19	2	black	2	1	1086
5.0.11.0	win	012220	18:05:48	0004	stroop	3	bluecontrol	20	3	red	4	1	1068
5.0.11.0	win	012220	18:05:48	0004	stroop	3	bluecontrol	21	3	green	4	1	490
5.0.11.0	win	012220	18:05:48	0004	stroop	3	redcongruent	22	1	red	2	1	783
5.0.11.0	win	012220	18:05:48	0004	stroop	3	blueincongruent	23	2	green	4	1	1514
5.0.11.0	win	012220	18:05:48	0004	stroop	3	bluecongruent	24	1	blue	4	1	550
5.0.11.0	win	012220	18:05:48	0004	stroop	3	redincongruent	25	2	blue	2	1	682
5.0.11.0	win	012220	18:05:48	0004	stroop	3	greencongruent	26	1	green	3	1	696
5.0.11.0	win	012220	18:05:48	0004	stroop	3	redincongruent	27	2	green	2	1	805
5.0.11.0	win	012220	18:05:48	0004	stroop	3	redcontrol	28	3	black	2	1	654
5.0.11.0	win	012220	18:05:48	0004	stroop	3	blackcontrol	29	3	red	5	1	574
5.0.11.0	win	012220	18:05:48	0004	stroop	3	redcongruent	30	1	red	2	1	576
5.0.11.0	win	012220	18:05:48	0004	stroop	3	greenincongruent	31	2	red	3	1	675
5.0.11.0	win	012220	18:05:48	0004	stroop	3	blackincongruent	32	2	red	5	1	1009
5.0.11.0	win	012220	18:05:48	0004	stroop	3	blackincongruent	33	2	blue	5	1	562
5.0.11.0	win	012220	18:05:48	0004	stroop	3	redcongruent	34	1	red	2	1	581
5.0.11.0	win	012220	18:05:48	0004	stroop	3	greenincongruent	35	2	blue	3	1	455
5.0.11.0	win	012220	18:05:48	0004	stroop	3	redcongruent	36	1	red	3	0	638
5.0.11.0	win	012220	18:05:48	0004	stroop	3	redcontrol	37	3	blue	2	1	1117
5.0.11.0	win	012220	18:05:48	0004	stroop	3	greencongruent	38	1	green	3	1	1513
5.0.11.0	win	012220	18:05:48	0004	stroop	3	blackcongruent	39	1	black	5	1	582
5.0.11.0	win	012220	18:05:48	0004	stroop	3	greencongruent	40	1	green	3	1	679
5.0.11.0	win	012220	18:05:48	0004	stroop	3	blackincongruent	41	2	red	5	1	679
5.0.11.0	win	012220	18:05:48	0004	stroop	3	greencongruent	42	1	green	3	1	708
5.0.11.0	win	012220	18:05:48	0004	stroop	3	bluecongruent	43	1	blue	4	1	657
5.0.11.0	win	012220	18:05:48	0004	stroop	3	greenincongruent	44	2	black	3	1	880
5.0.11.0	win	012220	18:05:48	0004	stroop	3	greencontrol	45	3	blue	3	1	694
5.0.11.0	win	012220	18:05:48	0004	stroop	3	blueincongruent	46	2	black	4	1	980
5.0.11.0	win	012220	18:05:48	0004	stroop	3	bluecontrol	47	3	black	4	1	502
5.0.11.0	win	012220	18:05:48	0004	stroop	3	redcongruent	48	1	red	2	1	523
5.0.11.0	win	012220	18:05:48	0004	stroop	3	greencongruent	49	1	green	3	1	736
5.0.11.0	win	012220	18:05:48	0004	stroop	3	bluecongruent	50	1	blue	4	1	507
5.0.11.0	win	012220	18:05:48	0004	stroop	3	blackcongruent	51	1	black	5	1	401
5.0.11.0	win	012220	18:05:48	0004	stroop	3	greenincongruent	52	2	black	3	1	874
5.0.11.0	win	012220	18:05:48	0004	stroop	3	blackcontrol	53	3	green	5	1	657
5.0.11.0	win	012220	18:05:48	0004	stroop	3	blackcontrol	54	3	blue	5	1	448
5.0.11.0	win	012220	18:05:48	0004	stroop	3	blackcontrol	55	3	red	5	1	375
5.0.11.0	win	012220	18:05:48	0004	stroop	3	redincongruent	56	2	green	2	1	1809
5.0.11.0	win	012220	18:05:48	0004	stroop	3	redincongruent	57	2	blue	2	1	498
5.0.11.0	win	012220	18:05:48	0004	stroop	3	blackcontrol	58	3	red	4	0	679
5.0.11.0	win	012220	18:05:48	0004	stroop	3	blueincongruent	59	2	red	4	1	757
5.0.11.0	win	012220	18:05:48	0004	stroop	3	greenincongruent	60	2	red	3	1	768
5.0.11.0	win	012220	18:05:48	0004	stroop	3	bluecontrol	61	3	green	4	1	1098
5.0.11.0	win	012220	18:05:48	0004	stroop	3	bluecongruent	62	1	blue	4	1	584
5.0.11.0	win	012220	18:05:48	0004	stroop	3	greencontrol	63	3	black	3	1	554
5.0.11.0	win	012220	18:05:48	0004	stroop	3	redincongruent	64	2	black	2	1	813
5.0.11.0	win	012220	18:05:48	0004	stroop	3	blueincongruent	65	2	green	3	0	885
5.0.11.0	win	012220	18:05:48	0004	stroop	3	greencontrol	66	3	red	3	1	795
5.0.11.0	win	012220	18:05:48	0004	stroop	3	blueincongruent	67	2	black	4	1	436
5.0.11.0	win	012220	18:05:48	0004	stroop	3	greencontrol	68	3	blue	3	1	749
5.0.11.0	win	012220	18:05:48	0004	stroop	3	blackcontrol	69	3	blue	5	1	567
5.0.11.0	win	012220	18:05:48	0004	stroop	3	blackincongruent	70	2	green	5	1	762
5.0.11.0	win	012220	18:05:48	0004	stroop	3	blueincongruent	71	2	red	4	1	1028
5.0.11.0	win	012220	18:05:48	0004	stroop	3	greencontrol	72	3	black	3	1	629
5.0.11.0	win	012220	18:05:48	0004	stroop	3	bluecongruent	73	1	blue	4	1	501
5.0.11.0	win	012220	18:05:48	0004	stroop	3	redincongruent	74	2	green	2	1	667
5.0.11.0	win	012220	18:05:48	0004	stroop	3	bluecongruent	75	1	blue	4	1	2041
5.0.11.0	win	012220	18:05:48	0004	stroop	3	blackcongruent	76	1	black	5	1	561
5.0.11.0	win	012220	18:05:48	0004	stroop	3	bluecontrol	77	3	black	4	1	676
5.0.11.0	win	012220	18:05:48	0004	stroop	3	blackincongruent	78	2	red	5	1	642
5.0.11.0	win	012220	18:05:48	0004	stroop	3	blackcongruent	79	1	black	5	1	482
5.0.11.0	win	012220	18:05:48	0004	stroop	3	redcontrol	80	3	green	2	1	647
5.0.11.0	win	012220	18:05:48	0004	stroop	3	greencongruent	81	1	green	3	1	519
5.0.11.0	win	012220	18:05:48	0004	stroop	3	greencongruent	82	1	green	3	1	523
5.0.11.0	win	012220	18:05:48	0004	stroop	3	redcongruent	83	1	red	2	1	528
5.0.11.0	win	012220	18:05:48	0004	stroop	3	redcongruent	84	1	red	2	1	468
5.0.11.0	win	012220	18:05:48	0004	stroop	3	redcontrol	85	3	blue	2	1	507
