build	computer.platform	date	time	subject	blockcode	blocknum	trialcode	trialnum	values.congruency	stimulusitem1	response	correct	latency
5.0.11.0	win	120619	14:59:38	003	stroop	3	greencontrol	2	3	red	3	1	880
5.0.11.0	win	120619	14:59:38	003	stroop	3	bluecongruent	3	1	blue	4	1	757
5.0.11.0	win	120619	14:59:38	003	stroop	3	greencontrol	4	3	blue	3	1	656
5.0.11.0	win	120619	14:59:38	003	stroop	3	greenincongruent	5	2	black	3	1	1438
5.0.11.0	win	120619	14:59:38	003	stroop	3	greencontrol	6	3	black	3	1	639
5.0.11.0	win	120619	14:59:38	003	stroop	3	greencongruent	7	1	green	3	1	702
5.0.11.0	win	120619	14:59:38	003	stroop	3	blackcongruent	8	1	black	5	1	636
5.0.11.0	win	120619	14:59:38	003	stroop	3	blackcongruent	9	1	black	5	1	540
5.0.11.0	win	120619	14:59:38	003	stroop	3	bluecontrol	10	3	green	4	1	623
5.0.11.0	win	120619	14:59:38	003	stroop	3	redcongruent	11	1	red	2	1	592
5.0.11.0	win	120619	14:59:38	003	stroop	3	greencontrol	12	3	black	3	1	770
5.0.11.0	win	120619	14:59:38	003	stroop	3	blackcongruent	13	1	black	5	1	588
5.0.11.0	win	120619	14:59:38	003	stroop	3	blueincongruent	14	2	black	4	1	702
5.0.11.0	win	120619	14:59:38	003	stroop	3	blackcontrol	15	3	green	5	1	699
5.0.11.0	win	120619	14:59:38	003	stroop	3	blackcontrol	16	3	blue	5	1	440
5.0.11.0	win	120619	14:59:38	003	stroop	3	greencongruent	17	1	green	3	1	607
5.0.11.0	win	120619	14:59:38	003	stroop	3	blueincongruent	18	2	red	4	1	672
5.0.11.0	win	120619	14:59:38	003	stroop	3	blueincongruent	19	2	green	4	1	495
5.0.11.0	win	120619	14:59:38	003	stroop	3	blackincongruent	20	2	blue	5	1	596
5.0.11.0	win	120619	14:59:38	003	stroop	3	bluecontrol	21	3	red	5	0	437
5.0.11.0	win	120619	14:59:38	003	stroop	3	blackcongruent	22	1	black	5	1	605
5.0.11.0	win	120619	14:59:38	003	stroop	3	redcontrol	23	3	black	2	1	749
5.0.11.0	win	120619	14:59:38	003	stroop	3	bluecontrol	24	3	green	4	1	1065
5.0.11.0	win	120619	14:59:38	003	stroop	3	redcontrol	25	3	green	2	1	567
5.0.11.0	win	120619	14:59:38	003	stroop	3	greenincongruent	26	2	red	3	1	698
5.0.11.0	win	120619	14:59:38	003	stroop	3	redincongruent	27	2	green	2	1	1016
5.0.11.0	win	120619	14:59:38	003	stroop	3	blackincongruent	28	2	red	5	1	664
5.0.11.0	win	120619	14:59:38	003	stroop	3	greencongruent	29	1	green	3	1	903
5.0.11.0	win	120619	14:59:38	003	stroop	3	greencongruent	30	1	green	3	1	556
5.0.11.0	win	120619	14:59:38	003	stroop	3	blackcontrol	31	3	red	5	1	687
5.0.11.0	win	120619	14:59:38	003	stroop	3	blueincongruent	32	2	black	4	1	685
5.0.11.0	win	120619	14:59:38	003	stroop	3	redincongruent	33	2	blue	2	1	635
5.0.11.0	win	120619	14:59:38	003	stroop	3	blueincongruent	34	2	red	4	1	1803
5.0.11.0	win	120619	14:59:38	003	stroop	3	bluecontrol	35	3	black	4	1	524
5.0.11.0	win	120619	14:59:38	003	stroop	3	bluecontrol	36	3	red	4	1	721
5.0.11.0	win	120619	14:59:38	003	stroop	3	redcongruent	37	1	red	2	1	749
5.0.11.0	win	120619	14:59:38	003	stroop	3	redcontrol	38	3	blue	2	1	505
5.0.11.0	win	120619	14:59:38	003	stroop	3	blueincongruent	39	2	green	4	1	957
5.0.11.0	win	120619	14:59:38	003	stroop	3	bluecongruent	40	1	blue	4	1	720
5.0.11.0	win	120619	14:59:38	003	stroop	3	greenincongruent	41	2	blue	3	1	637
5.0.11.0	win	120619	14:59:38	003	stroop	3	greencongruent	42	1	green	3	1	605
5.0.11.0	win	120619	14:59:38	003	stroop	3	redincongruent	43	2	black	2	1	782
5.0.11.0	win	120619	14:59:38	003	stroop	3	redcontrol	44	3	black	2	1	489
5.0.11.0	win	120619	14:59:38	003	stroop	3	redcongruent	45	1	red	2	1	573
5.0.11.0	win	120619	14:59:38	003	stroop	3	blackcontrol	46	3	red	5	1	463
5.0.11.0	win	120619	14:59:38	003	stroop	3	bluecongruent	47	1	blue	3	0	806
5.0.11.0	win	120619	14:59:38	003	stroop	3	blackincongruent	48	2	red	5	1	1183
5.0.11.0	win	120619	14:59:38	003	stroop	3	greencongruent	49	1	green	3	1	1081
5.0.11.0	win	120619	14:59:38	003	stroop	3	blackincongruent	50	2	blue	5	1	1654
5.0.11.0	win	120619	14:59:38	003	stroop	3	redincongruent	51	2	blue	2	1	1229
5.0.11.0	win	120619	14:59:38	003	stroop	3	bluecongruent	52	1	blue	4	1	1189
5.0.11.0	win	120619	14:59:38	003	stroop	3	greenincongruent	53	2	red	3	1	799
5.0.11.0	win	120619	14:59:38	003	stroop	3	greenincongruent	54	2	black	3	1	712
5.0.11.0	win	120619	14:59:38	003	stroop	3	redcontrol	55	3	green	2	1	692
5.0.11.0	win	120619	14:59:38	003	stroop	3	redincongruent	56	2	green	2	1	578
5.0.11.0	win	120619	14:59:38	003	stroop	3	greencontrol	57	3	blue	3	1	500
5.0.11.0	win	120619	14:59:38	003	stroop	3	greenincongruent	58	2	blue	3	1	457
5.0.11.0	win	120619	14:59:38	003	stroop	3	blackcontrol	59	3	blue	5	1	641
5.0.11.0	win	120619	14:59:38	003	stroop	3	redincongruent	60	2	green	2	1	816
5.0.11.0	win	120619	14:59:38	003	stroop	3	bluecongruent	61	1	blue	4	1	649
5.0.11.0	win	120619	14:59:38	003	stroop	3	redcontrol	62	3	blue	2	1	1080
5.0.11.0	win	120619	14:59:38	003	stroop	3	redcontrol	63	3	blue	2	1	438
5.0.11.0	win	120619	14:59:38	003	stroop	3	blackcongruent	64	1	black	5	1	734
5.0.11.0	win	120619	14:59:38	003	stroop	3	blackcongruent	65	1	black	5	1	393
5.0.11.0	win	120619	14:59:38	003	stroop	3	redcongruent	66	1	red	2	1	754
5.0.11.0	win	120619	14:59:38	003	stroop	3	bluecontrol	67	3	black	4	1	1758
5.0.11.0	win	120619	14:59:38	003	stroop	3	greencongruent	68	1	green	3	1	594
5.0.11.0	win	120619	14:59:38	003	stroop	3	redcongruent	69	1	red	2	1	1442
5.0.11.0	win	120619	14:59:38	003	stroop	3	bluecongruent	70	1	blue	4	1	882
5.0.11.0	win	120619	14:59:38	003	stroop	3	blueincongruent	71	2	green	4	1	408
5.0.11.0	win	120619	14:59:38	003	stroop	3	blackcontrol	72	3	green	5	1	610
5.0.11.0	win	120619	14:59:38	003	stroop	3	redcongruent	73	1	red	2	1	658
5.0.11.0	win	120619	14:59:38	003	stroop	3	blackincongruent	74	2	green	5	1	881
5.0.11.0	win	120619	14:59:38	003	stroop	3	bluecontrol	75	3	red	4	1	871
5.0.11.0	win	120619	14:59:38	003	stroop	3	blackincongruent	76	2	green	4	0	797
5.0.11.0	win	120619	14:59:38	003	stroop	3	blackcongruent	77	1	black	5	1	5943
5.0.11.0	win	120619	14:59:38	003	stroop	3	redcongruent	78	1	red	2	1	675
5.0.11.0	win	120619	14:59:38	003	stroop	3	redincongruent	79	2	black	2	1	785
5.0.11.0	win	120619	14:59:38	003	stroop	3	greenincongruent	80	2	blue	4	0	811
5.0.11.0	win	120619	14:59:38	003	stroop	3	greencontrol	81	3	red	3	1	659
5.0.11.0	win	120619	14:59:38	003	stroop	3	bluecongruent	82	1	blue	4	1	787
5.0.11.0	win	120619	14:59:38	003	stroop	3	blackcontrol	83	3	blue	5	1	525
5.0.11.0	win	120619	14:59:38	003	stroop	3	blackincongruent	84	2	blue	5	1	512
5.0.11.0	win	120619	14:59:38	003	stroop	3	greencontrol	85	3	black	3	1	1205
