build	computer.platform	date	time	subject	blockcode	blocknum	trialcode	trialnum	values.congruency	stimulusitem1	response	correct	latency
5.0.11.0	win	120519	17:35:12	3687	stroop	3	blackcontrol	2	3	blue	5	1	1156
5.0.11.0	win	120519	17:35:12	3687	stroop	3	redcongruent	3	1	red	2	1	1071
5.0.11.0	win	120519	17:35:12	3687	stroop	3	blueincongruent	4	2	red	4	1	1133
5.0.11.0	win	120519	17:35:12	3687	stroop	3	blackincongruent	5	2	red	5	1	1001
5.0.11.0	win	120519	17:35:12	3687	stroop	3	greenincongruent	6	2	black	3	1	1034
5.0.11.0	win	120519	17:35:12	3687	stroop	3	blackcongruent	7	1	black	5	1	891
5.0.11.0	win	120519	17:35:12	3687	stroop	3	blackcongruent	8	1	black	5	1	656
5.0.11.0	win	120519	17:35:12	3687	stroop	3	blackcongruent	9	1	black	5	1	480
5.0.11.0	win	120519	17:35:12	3687	stroop	3	bluecontrol	10	3	black	4	1	710
5.0.11.0	win	120519	17:35:12	3687	stroop	3	redcongruent	11	1	red	2	1	914
5.0.11.0	win	120519	17:35:12	3687	stroop	3	greencongruent	12	1	green	3	1	759
5.0.11.0	win	120519	17:35:12	3687	stroop	3	greencongruent	13	1	green	3	1	545
5.0.11.0	win	120519	17:35:12	3687	stroop	3	blueincongruent	14	2	green	4	1	884
5.0.11.0	win	120519	17:35:12	3687	stroop	3	blackcongruent	15	1	black	5	1	507
5.0.11.0	win	120519	17:35:12	3687	stroop	3	blackincongruent	16	2	blue	5	1	912
5.0.11.0	win	120519	17:35:12	3687	stroop	3	greenincongruent	17	2	blue	3	1	868
5.0.11.0	win	120519	17:35:12	3687	stroop	3	bluecongruent	18	1	blue	4	1	828
5.0.11.0	win	120519	17:35:12	3687	stroop	3	redcontrol	19	3	black	2	1	755
5.0.11.0	win	120519	17:35:12	3687	stroop	3	blackcontrol	20	3	green	5	1	575
5.0.11.0	win	120519	17:35:12	3687	stroop	3	greencontrol	21	3	black	3	1	945
5.0.11.0	win	120519	17:35:12	3687	stroop	3	blueincongruent	22	2	black	4	1	1365
5.0.11.0	win	120519	17:35:12	3687	stroop	3	greencontrol	23	3	red	3	1	983
5.0.11.0	win	120519	17:35:12	3687	stroop	3	blackcontrol	24	3	blue	5	1	921
5.0.11.0	win	120519	17:35:12	3687	stroop	3	greencongruent	25	1	green	3	1	1470
5.0.11.0	win	120519	17:35:12	3687	stroop	3	greenincongruent	26	2	blue	3	1	476
5.0.11.0	win	120519	17:35:12	3687	stroop	3	blueincongruent	27	2	black	4	1	627
5.0.11.0	win	120519	17:35:12	3687	stroop	3	redcongruent	28	1	red	2	1	658
5.0.11.0	win	120519	17:35:12	3687	stroop	3	redcongruent	29	1	red	2	1	498
5.0.11.0	win	120519	17:35:12	3687	stroop	3	redcongruent	30	1	red	2	1	487
5.0.11.0	win	120519	17:35:12	3687	stroop	3	greencongruent	31	1	green	3	1	1356
5.0.11.0	win	120519	17:35:12	3687	stroop	3	bluecongruent	32	1	blue	4	1	735
5.0.11.0	win	120519	17:35:12	3687	stroop	3	blackcontrol	33	3	red	5	1	635
5.0.11.0	win	120519	17:35:12	3687	stroop	3	bluecongruent	34	1	blue	4	1	523
5.0.11.0	win	120519	17:35:12	3687	stroop	3	redcontrol	35	3	green	2	1	623
5.0.11.0	win	120519	17:35:12	3687	stroop	3	greenincongruent	36	2	black	3	1	1168
5.0.11.0	win	120519	17:35:12	3687	stroop	3	blackcongruent	37	1	black	5	1	682
5.0.11.0	win	120519	17:35:12	3687	stroop	3	redcontrol	38	3	blue	2	1	632
5.0.11.0	win	120519	17:35:12	3687	stroop	3	blackcontrol	39	3	green	5	1	615
5.0.11.0	win	120519	17:35:12	3687	stroop	3	redincongruent	40	2	green	2	1	664
5.0.11.0	win	120519	17:35:12	3687	stroop	3	bluecongruent	41	1	blue	4	1	1447
5.0.11.0	win	120519	17:35:12	3687	stroop	3	bluecongruent	42	1	blue	4	1	487
5.0.11.0	win	120519	17:35:12	3687	stroop	3	greencontrol	43	3	blue	3	1	524
5.0.11.0	win	120519	17:35:12	3687	stroop	3	redincongruent	44	2	blue	2	1	769
5.0.11.0	win	120519	17:35:12	3687	stroop	3	greencontrol	45	3	blue	3	1	907
5.0.11.0	win	120519	17:35:12	3687	stroop	3	bluecontrol	46	3	green	4	1	705
5.0.11.0	win	120519	17:35:12	3687	stroop	3	blackincongruent	47	2	green	5	1	829
5.0.11.0	win	120519	17:35:12	3687	stroop	3	greenincongruent	48	2	red	3	1	1205
5.0.11.0	win	120519	17:35:12	3687	stroop	3	redcongruent	49	1	red	2	1	767
5.0.11.0	win	120519	17:35:12	3687	stroop	3	redincongruent	50	2	black	2	1	1050
5.0.11.0	win	120519	17:35:12	3687	stroop	3	redincongruent	51	2	black	2	1	553
5.0.11.0	win	120519	17:35:12	3687	stroop	3	blackcongruent	52	1	black	5	1	796
5.0.11.0	win	120519	17:35:12	3687	stroop	3	redcontrol	53	3	blue	2	1	629
5.0.11.0	win	120519	17:35:12	3687	stroop	3	blackincongruent	54	2	blue	5	1	918
5.0.11.0	win	120519	17:35:12	3687	stroop	3	greencongruent	55	1	green	3	1	811
5.0.11.0	win	120519	17:35:12	3687	stroop	3	greencontrol	56	3	black	3	1	547
5.0.11.0	win	120519	17:35:12	3687	stroop	3	blackincongruent	57	2	red	5	1	1094
5.0.11.0	win	120519	17:35:12	3687	stroop	3	blackincongruent	58	2	green	3	0	1091
5.0.11.0	win	120519	17:35:12	3687	stroop	3	bluecontrol	59	3	black	4	1	1297
5.0.11.0	win	120519	17:35:12	3687	stroop	3	blueincongruent	60	2	red	4	1	950
5.0.11.0	win	120519	17:35:12	3687	stroop	3	greencontrol	61	3	red	3	1	841
5.0.11.0	win	120519	17:35:12	3687	stroop	3	blueincongruent	62	2	green	3	0	913
5.0.11.0	win	120519	17:35:12	3687	stroop	3	redcongruent	63	1	red	2	1	758
5.0.11.0	win	120519	17:35:12	3687	stroop	3	blueincongruent	64	2	green	4	1	1345
5.0.11.0	win	120519	17:35:12	3687	stroop	3	redcontrol	65	3	black	2	1	837
5.0.11.0	win	120519	17:35:12	3687	stroop	3	greencongruent	66	1	green	3	1	845
5.0.11.0	win	120519	17:35:12	3687	stroop	3	blackcontrol	67	3	red	5	1	628
5.0.11.0	win	120519	17:35:12	3687	stroop	3	bluecontrol	68	3	green	4	1	740
5.0.11.0	win	120519	17:35:12	3687	stroop	3	greenincongruent	69	2	red	3	1	784
5.0.11.0	win	120519	17:35:12	3687	stroop	3	bluecongruent	70	1	blue	4	1	730
5.0.11.0	win	120519	17:35:12	3687	stroop	3	redincongruent	71	2	blue	2	1	725
5.0.11.0	win	120519	17:35:12	3687	stroop	3	blackincongruent	72	2	red	5	1	690
5.0.11.0	win	120519	17:35:12	3687	stroop	3	blackcongruent	73	1	black	5	1	671
5.0.11.0	win	120519	17:35:12	3687	stroop	3	bluecontrol	74	3	red	4	1	1277
5.0.11.0	win	120519	17:35:12	3687	stroop	3	redincongruent	75	2	green	2	1	947
5.0.11.0	win	120519	17:35:12	3687	stroop	3	greencongruent	76	1	green	3	1	695
5.0.11.0	win	120519	17:35:12	3687	stroop	3	bluecongruent	77	1	blue	4	1	980
5.0.11.0	win	120519	17:35:12	3687	stroop	3	redcontrol	78	3	green	2	1	806
5.0.11.0	win	120519	17:35:12	3687	stroop	3	redincongruent	79	2	black	2	1	671
5.0.11.0	win	120519	17:35:12	3687	stroop	3	bluecontrol	80	3	green	5	0	557
5.0.11.0	win	120519	17:35:12	3687	stroop	3	blackcontrol	81	3	blue	5	1	1681
5.0.11.0	win	120519	17:35:12	3687	stroop	3	redcontrol	82	3	blue	2	1	855
5.0.11.0	win	120519	17:35:12	3687	stroop	3	bluecontrol	83	3	red	4	1	1326
5.0.11.0	win	120519	17:35:12	3687	stroop	3	greenincongruent	84	2	black	3	1	866
5.0.11.0	win	120519	17:35:12	3687	stroop	3	greencontrol	85	3	blue	3	1	584
