build	computer.platform	date	time	subject	blockcode	blocknum	trialcode	trialnum	values.congruency	stimulusitem1	response	correct	latency
5.0.11.0	win	120319	11:18:51	001	stroop	3	redcontrol	2	3	blue	2	1	2503
5.0.11.0	win	120319	11:18:51	001	stroop	3	greencontrol	3	3	blue	3	1	812
5.0.11.0	win	120319	11:18:51	001	stroop	3	greenincongruent	4	2	red	3	1	1012
5.0.11.0	win	120319	11:18:51	001	stroop	3	blackincongruent	5	2	blue	5	1	1157
5.0.11.0	win	120319	11:18:51	001	stroop	3	bluecongruent	6	1	blue	4	1	847
5.0.11.0	win	120319	11:18:51	001	stroop	3	redcontrol	7	3	green	2	1	1079
5.0.11.0	win	120319	11:18:51	001	stroop	3	greencongruent	8	1	green	3	1	693
5.0.11.0	win	120319	11:18:51	001	stroop	3	redcontrol	9	3	black	2	1	882
5.0.11.0	win	120319	11:18:51	001	stroop	3	bluecongruent	10	1	blue	4	1	1320
5.0.11.0	win	120319	11:18:51	001	stroop	3	bluecontrol	11	3	green	4	1	1213
5.0.11.0	win	120319	11:18:51	001	stroop	3	redcongruent	12	1	red	2	1	805
5.0.11.0	win	120319	11:18:51	001	stroop	3	redcongruent	13	1	red	2	1	591
5.0.11.0	win	120319	11:18:51	001	stroop	3	bluecontrol	14	3	red	4	1	737
5.0.11.0	win	120319	11:18:51	001	stroop	3	greenincongruent	15	2	blue	3	1	1196
5.0.11.0	win	120319	11:18:51	001	stroop	3	bluecongruent	16	1	blue	4	1	709
5.0.11.0	win	120319	11:18:51	001	stroop	3	blackincongruent	17	2	red	5	1	914
5.0.11.0	win	120319	11:18:51	001	stroop	3	bluecongruent	18	1	blue	4	1	838
5.0.11.0	win	120319	11:18:51	001	stroop	3	greencongruent	19	1	green	3	1	766
5.0.11.0	win	120319	11:18:51	001	stroop	3	bluecontrol	20	3	black	4	1	665
5.0.11.0	win	120319	11:18:51	001	stroop	3	greencongruent	21	1	green	3	1	871
5.0.11.0	win	120319	11:18:51	001	stroop	3	greencongruent	22	1	green	3	1	573
5.0.11.0	win	120319	11:18:51	001	stroop	3	blackincongruent	23	2	blue	5	1	657
5.0.11.0	win	120319	11:18:51	001	stroop	3	greenincongruent	24	2	black	3	1	1535
5.0.11.0	win	120319	11:18:51	001	stroop	3	blackcongruent	25	1	black	5	1	635
5.0.11.0	win	120319	11:18:51	001	stroop	3	greencongruent	26	1	green	3	1	859
5.0.11.0	win	120319	11:18:51	001	stroop	3	redincongruent	27	2	green	2	1	785
5.0.11.0	win	120319	11:18:51	001	stroop	3	blackcongruent	28	1	black	5	1	907
5.0.11.0	win	120319	11:18:51	001	stroop	3	redincongruent	29	2	black	2	1	1296
5.0.11.0	win	120319	11:18:51	001	stroop	3	greencongruent	30	1	green	3	1	1094
5.0.11.0	win	120319	11:18:51	001	stroop	3	blackcontrol	31	3	red	5	1	644
5.0.11.0	win	120319	11:18:51	001	stroop	3	redcongruent	32	1	red	2	1	931
5.0.11.0	win	120319	11:18:51	001	stroop	3	bluecongruent	33	1	blue	4	1	679
5.0.11.0	win	120319	11:18:51	001	stroop	3	redincongruent	34	2	blue	2	1	1029
5.0.11.0	win	120319	11:18:51	001	stroop	3	blueincongruent	35	2	red	4	1	1077
5.0.11.0	win	120319	11:18:51	001	stroop	3	blackincongruent	36	2	green	5	1	820
5.0.11.0	win	120319	11:18:51	001	stroop	3	redincongruent	37	2	green	3	0	763
5.0.11.0	win	120319	11:18:51	001	stroop	3	blackcontrol	38	3	green	5	1	1141
5.0.11.0	win	120319	11:18:51	001	stroop	3	blackcongruent	39	1	black	5	1	753
5.0.11.0	win	120319	11:18:51	001	stroop	3	bluecongruent	40	1	blue	4	1	988
5.0.11.0	win	120319	11:18:51	001	stroop	3	redcongruent	41	1	red	2	1	750
5.0.11.0	win	120319	11:18:51	001	stroop	3	bluecontrol	42	3	black	4	1	825
5.0.11.0	win	120319	11:18:51	001	stroop	3	bluecontrol	43	3	red	4	1	705
5.0.11.0	win	120319	11:18:51	001	stroop	3	redcongruent	44	1	red	2	1	879
5.0.11.0	win	120319	11:18:51	001	stroop	3	redincongruent	45	2	black	2	1	1220
5.0.11.0	win	120319	11:18:51	001	stroop	3	greencontrol	46	3	red	3	1	732
5.0.11.0	win	120319	11:18:51	001	stroop	3	redcontrol	47	3	blue	2	1	616
5.0.11.0	win	120319	11:18:51	001	stroop	3	greencontrol	48	3	black	3	1	617
5.0.11.0	win	120319	11:18:51	001	stroop	3	redincongruent	49	2	blue	2	1	745
5.0.11.0	win	120319	11:18:51	001	stroop	3	blueincongruent	50	2	green	4	1	981
5.0.11.0	win	120319	11:18:51	001	stroop	3	blackcontrol	51	3	green	5	1	694
5.0.11.0	win	120319	11:18:51	001	stroop	3	redcongruent	52	1	red	2	1	868
5.0.11.0	win	120319	11:18:51	001	stroop	3	greencongruent	53	1	green	3	1	826
5.0.11.0	win	120319	11:18:51	001	stroop	3	blueincongruent	54	2	black	4	1	1186
5.0.11.0	win	120319	11:18:51	001	stroop	3	blackincongruent	55	2	red	2	0	780
5.0.11.0	win	120319	11:18:51	001	stroop	3	blueincongruent	56	2	red	2	0	821
5.0.11.0	win	120319	11:18:51	001	stroop	3	blackcontrol	57	3	blue	5	1	1103
5.0.11.0	win	120319	11:18:51	001	stroop	3	blueincongruent	58	2	black	4	1	1036
5.0.11.0	win	120319	11:18:51	001	stroop	3	greenincongruent	59	2	black	3	1	636
5.0.11.0	win	120319	11:18:51	001	stroop	3	blackcongruent	60	1	black	5	1	748
5.0.11.0	win	120319	11:18:51	001	stroop	3	greencontrol	61	3	blue	3	1	711
5.0.11.0	win	120319	11:18:51	001	stroop	3	redcontrol	62	3	black	2	1	660
5.0.11.0	win	120319	11:18:51	001	stroop	3	blackcongruent	63	1	black	5	1	1443
5.0.11.0	win	120319	11:18:51	001	stroop	3	greenincongruent	64	2	blue	3	1	1602
5.0.11.0	win	120319	11:18:51	001	stroop	3	redcontrol	65	3	green	2	1	1180
5.0.11.0	win	120319	11:18:51	001	stroop	3	greencontrol	66	3	black	3	1	662
5.0.11.0	win	120319	11:18:51	001	stroop	3	blackincongruent	67	2	blue	5	1	2260
5.0.11.0	win	120319	11:18:51	001	stroop	3	bluecongruent	68	1	blue	4	1	1092
5.0.11.0	win	120319	11:18:51	001	stroop	3	blackcontrol	69	3	red	5	1	609
5.0.11.0	win	120319	11:18:51	001	stroop	3	blackcontrol	70	3	green	5	1	691
5.0.11.0	win	120319	11:18:51	001	stroop	3	greencontrol	71	3	red	3	1	657
5.0.11.0	win	120319	11:18:51	001	stroop	3	blackcontrol	72	3	red	5	1	639
5.0.11.0	win	120319	11:18:51	001	stroop	3	greenincongruent	73	2	red	3	1	831
5.0.11.0	win	120319	11:18:51	001	stroop	3	bluecontrol	74	3	green	4	1	1575
5.0.11.0	win	120319	11:18:51	001	stroop	3	bluecontrol	75	3	green	4	1	418
5.0.11.0	win	120319	11:18:51	001	stroop	3	redcongruent	76	1	red	2	1	779
5.0.11.0	win	120319	11:18:51	001	stroop	3	greencontrol	77	3	black	3	1	885
5.0.11.0	win	120319	11:18:51	001	stroop	3	blueincongruent	78	2	green	4	1	1947
5.0.11.0	win	120319	11:18:51	001	stroop	3	blueincongruent	79	2	black	4	1	694
5.0.11.0	win	120319	11:18:51	001	stroop	3	blackcongruent	80	1	black	5	1	595
5.0.11.0	win	120319	11:18:51	001	stroop	3	blackincongruent	81	2	red	5	1	1237
5.0.11.0	win	120319	11:18:51	001	stroop	3	redcontrol	82	3	black	2	1	573
5.0.11.0	win	120319	11:18:51	001	stroop	3	greenincongruent	83	2	red	3	1	1167
5.0.11.0	win	120319	11:18:51	001	stroop	3	blackcongruent	84	1	black	5	1	1002
5.0.11.0	win	120319	11:18:51	001	stroop	3	redincongruent	85	2	green	2	1	1243
