build	computer.platform	date	time	subject	blockcode	blocknum	trialcode	trialnum	values.congruency	stimulusitem1	response	correct	latency
5.0.11.0	win	012420	14:28:43	005	stroop	3	redcongruent	2	1	red	2	1	906
5.0.11.0	win	012420	14:28:43	005	stroop	3	bluecontrol	3	3	red	4	1	750
5.0.11.0	win	012420	14:28:43	005	stroop	3	redincongruent	4	2	black	2	1	745
5.0.11.0	win	012420	14:28:43	005	stroop	3	bluecontrol	5	3	green	4	1	518
5.0.11.0	win	012420	14:28:43	005	stroop	3	bluecongruent	6	1	blue	4	1	489
5.0.11.0	win	012420	14:28:43	005	stroop	3	redincongruent	7	2	blue	2	1	384
5.0.11.0	win	012420	14:28:43	005	stroop	3	greencongruent	8	1	green	3	1	505
5.0.11.0	win	012420	14:28:43	005	stroop	3	bluecongruent	9	1	blue	4	1	511
5.0.11.0	win	012420	14:28:43	005	stroop	3	redincongruent	10	2	green	2	1	468
5.0.11.0	win	012420	14:28:43	005	stroop	3	blackcontrol	11	3	red	5	1	458
5.0.11.0	win	012420	14:28:43	005	stroop	3	greencontrol	12	3	red	3	1	577
5.0.11.0	win	012420	14:28:43	005	stroop	3	blueincongruent	13	2	red	4	1	611
5.0.11.0	win	012420	14:28:43	005	stroop	3	greenincongruent	14	2	black	3	1	548
5.0.11.0	win	012420	14:28:43	005	stroop	3	blackcontrol	15	3	blue	5	1	392
5.0.11.0	win	012420	14:28:43	005	stroop	3	greencontrol	16	3	black	3	1	561
5.0.11.0	win	012420	14:28:43	005	stroop	3	bluecongruent	17	1	blue	4	1	453
5.0.11.0	win	012420	14:28:43	005	stroop	3	blueincongruent	18	2	black	4	1	508
5.0.11.0	win	012420	14:28:43	005	stroop	3	greencongruent	19	1	green	2	0	546
5.0.11.0	win	012420	14:28:43	005	stroop	3	blueincongruent	20	2	green	4	1	1141
5.0.11.0	win	012420	14:28:43	005	stroop	3	blackincongruent	21	2	blue	5	1	928
5.0.11.0	win	012420	14:28:43	005	stroop	3	blackcontrol	22	3	blue	5	1	468
5.0.11.0	win	012420	14:28:43	005	stroop	3	blueincongruent	23	2	green	3	0	714
5.0.11.0	win	012420	14:28:43	005	stroop	3	redcongruent	24	1	red	2	1	599
5.0.11.0	win	012420	14:28:43	005	stroop	3	blackincongruent	25	2	green	5	1	952
5.0.11.0	win	012420	14:28:43	005	stroop	3	redincongruent	26	2	green	2	1	972
5.0.11.0	win	012420	14:28:43	005	stroop	3	blackcongruent	27	1	black	5	1	462
5.0.11.0	win	012420	14:28:43	005	stroop	3	greenincongruent	28	2	red	3	1	629
5.0.11.0	win	012420	14:28:43	005	stroop	3	blackincongruent	29	2	red	5	1	741
5.0.11.0	win	012420	14:28:43	005	stroop	3	blackcontrol	30	3	green	5	1	480
5.0.11.0	win	012420	14:28:43	005	stroop	3	redincongruent	31	2	black	2	1	502
5.0.11.0	win	012420	14:28:43	005	stroop	3	blackcontrol	32	3	red	5	1	411
5.0.11.0	win	012420	14:28:43	005	stroop	3	bluecongruent	33	1	blue	4	1	500
5.0.11.0	win	012420	14:28:43	005	stroop	3	bluecongruent	34	1	blue	4	1	377
5.0.11.0	win	012420	14:28:43	005	stroop	3	blackincongruent	35	2	green	5	1	771
5.0.11.0	win	012420	14:28:43	005	stroop	3	redcontrol	36	3	black	2	1	430
5.0.11.0	win	012420	14:28:43	005	stroop	3	redcontrol	37	3	green	2	1	357
5.0.11.0	win	012420	14:28:43	005	stroop	3	blackcongruent	38	1	black	5	1	432
5.0.11.0	win	012420	14:28:43	005	stroop	3	redcongruent	39	1	red	2	1	616
5.0.11.0	win	012420	14:28:43	005	stroop	3	redincongruent	40	2	blue	2	1	809
5.0.11.0	win	012420	14:28:43	005	stroop	3	redcongruent	41	1	red	2	1	418
5.0.11.0	win	012420	14:28:43	005	stroop	3	blackincongruent	42	2	blue	5	1	411
5.0.11.0	win	012420	14:28:43	005	stroop	3	greencontrol	43	3	blue	3	1	787
5.0.11.0	win	012420	14:28:43	005	stroop	3	bluecontrol	44	3	black	4	1	590
5.0.11.0	win	012420	14:28:43	005	stroop	3	blueincongruent	45	2	red	4	1	367
5.0.11.0	win	012420	14:28:43	005	stroop	3	greencontrol	46	3	red	3	1	586
5.0.11.0	win	012420	14:28:43	005	stroop	3	blackcontrol	47	3	red	5	1	394
5.0.11.0	win	012420	14:28:43	005	stroop	3	redcongruent	48	1	red	2	1	533
5.0.11.0	win	012420	14:28:43	005	stroop	3	redcontrol	49	3	blue	2	1	360
5.0.11.0	win	012420	14:28:43	005	stroop	3	bluecontrol	50	3	red	4	1	483
5.0.11.0	win	012420	14:28:43	005	stroop	3	blackincongruent	51	2	red	5	1	570
5.0.11.0	win	012420	14:28:43	005	stroop	3	blackcongruent	52	1	black	5	1	460
5.0.11.0	win	012420	14:28:43	005	stroop	3	blackcongruent	53	1	black	5	1	356
5.0.11.0	win	012420	14:28:43	005	stroop	3	blackcontrol	54	3	green	5	1	335
5.0.11.0	win	012420	14:28:43	005	stroop	3	redcontrol	55	3	black	2	1	411
5.0.11.0	win	012420	14:28:43	005	stroop	3	greencongruent	56	1	green	3	1	563
5.0.11.0	win	012420	14:28:43	005	stroop	3	blueincongruent	57	2	black	4	1	518
5.0.11.0	win	012420	14:28:43	005	stroop	3	greenincongruent	58	2	blue	3	1	1243
5.0.11.0	win	012420	14:28:43	005	stroop	3	greencontrol	59	3	black	3	1	450
5.0.11.0	win	012420	14:28:43	005	stroop	3	greenincongruent	60	2	black	3	1	842
5.0.11.0	win	012420	14:28:43	005	stroop	3	greenincongruent	61	2	blue	3	1	514
5.0.11.0	win	012420	14:28:43	005	stroop	3	redcontrol	62	3	green	2	1	534
5.0.11.0	win	012420	14:28:43	005	stroop	3	greenincongruent	63	2	red	2	0	794
5.0.11.0	win	012420	14:28:43	005	stroop	3	greenincongruent	64	2	red	3	1	579
5.0.11.0	win	012420	14:28:43	005	stroop	3	greencongruent	65	1	green	2	0	693
5.0.11.0	win	012420	14:28:43	005	stroop	3	blackcongruent	66	1	black	5	1	514
5.0.11.0	win	012420	14:28:43	005	stroop	3	bluecontrol	67	3	green	4	1	615
5.0.11.0	win	012420	14:28:43	005	stroop	3	bluecongruent	68	1	blue	4	1	407
5.0.11.0	win	012420	14:28:43	005	stroop	3	redcongruent	69	1	red	3	0	432
5.0.11.0	win	012420	14:28:43	005	stroop	3	redincongruent	70	2	black	5	0	600
5.0.11.0	win	012420	14:28:43	005	stroop	3	blackcongruent	71	1	black	5	1	617
5.0.11.0	win	012420	14:28:43	005	stroop	3	bluecontrol	72	3	black	4	1	554
5.0.11.0	win	012420	14:28:43	005	stroop	3	bluecongruent	73	1	blue	4	1	413
5.0.11.0	win	012420	14:28:43	005	stroop	3	bluecontrol	74	3	green	4	1	374
5.0.11.0	win	012420	14:28:43	005	stroop	3	greencontrol	75	3	black	3	1	544
5.0.11.0	win	012420	14:28:43	005	stroop	3	redcontrol	76	3	blue	2	1	628
5.0.11.0	win	012420	14:28:43	005	stroop	3	redcontrol	77	3	black	2	1	356
5.0.11.0	win	012420	14:28:43	005	stroop	3	blackincongruent	78	2	red	5	1	592
5.0.11.0	win	012420	14:28:43	005	stroop	3	blackcongruent	79	1	black	5	1	354
5.0.11.0	win	012420	14:28:43	005	stroop	3	greencontrol	80	3	red	4	0	524
5.0.11.0	win	012420	14:28:43	005	stroop	3	greencongruent	81	1	green	4	0	401
5.0.11.0	win	012420	14:28:43	005	stroop	3	redcongruent	82	1	red	2	1	602
5.0.11.0	win	012420	14:28:43	005	stroop	3	greencongruent	83	1	green	3	1	492
5.0.11.0	win	012420	14:28:43	005	stroop	3	blueincongruent	84	2	green	4	1	449
5.0.11.0	win	012420	14:28:43	005	stroop	3	greencongruent	85	1	green	3	1	473
